subject,block,block_onset,trial,fixation_cross_onset,trial_onset,rt,choice,key,pA,mA,pB,mB,pCA,mCA,pCB,mCB,missing,condition,position_A,position_B,position_C,noise_Ap,noise_Am,noise_Bp,noise_Bm,noise_Cp,noise_Cm,attribute_positions
30,Practice,970.99,P1,971.03,972.54,15.7,B,left,0.78,7,0.62,17,0.85,3,0.55,24,-999,2.0,3,1,2,3.0,-2.0,-3.0,2.0,0.0,-1.0,1
30,Practice,970.99,P2,988.59,990.1,14.45,B,mid,0.72,7,0.62,16,0.88,5,0.58,26,-999,2.0,1,2,3,-3.0,-2.0,-3.0,1.0,3.0,1.0,10
30,Practice,970.99,P3,1004.9,1006.42,6.9,A,mid,0.75,11,0.68,13,0.85,4,0.55,25,-999,1.0,2,3,1,0.0,2.0,3.0,-2.0,0.0,0.0,110
30,Practice,970.99,P4,1013.66,1015.18,6.13,A,right,0.75,9,0.65,15,0.88,5,0.58,26,-999,1.0,3,1,2,0.0,0.0,0.0,0.0,3.0,1.0,100
30,Practice,970.99,P5,1021.66,1023.18,10.09,A,left,0.72,11,0.62,13,0.85,6,0.55,27,-999,1.0,1,3,2,-3.0,2.0,-3.0,-2.0,0.0,2.0,101
30,Practice,970.99,P6,1033.61,1035.12,7.56,C,left,0.78,7,0.62,13,0.82,6,0.52,27,-999,2.0,2,3,1,3.0,-2.0,-3.0,-2.0,-3.0,2.0,110
30,Practice,970.99,P7,1043.02,1044.54,5.07,B,left,0.75,7,0.65,17,0.85,5,0.55,26,-999,2.0,2,1,3,0.0,-2.0,0.0,2.0,0.0,1.0,111
30,Practice,970.99,P8,1049.95,1051.47,6.53,B,left,0.72,8,0.68,15,0.82,6,0.52,27,-999,2.0,3,1,2,-3.0,-1.0,3.0,0.0,-3.0,2.0,110
30,Practice,970.99,P9,1058.35,1059.87,6.53,B,left,0.78,8,0.62,16,0.88,5,0.58,26,-999,1.0,3,1,2,3.0,-1.0,-3.0,1.0,3.0,1.0,1
30,Practice,970.99,P10,1066.75,1068.26,7.35,A,left,0.75,10,0.65,16,0.82,2,0.52,23,-999,2.0,1,2,3,0.0,1.0,0.0,1.0,-3.0,-2.0,101
30,Practice,970.99,P11,1075.96,1077.48,7.14,B,right,0.72,8,0.65,15,0.85,5,0.55,26,-999,2.0,2,3,1,-3.0,-1.0,0.0,0.0,0.0,1.0,0
30,Practice,970.99,P12,1084.97,1086.49,7.97,B,right,0.72,8,0.68,15,0.85,5,0.55,26,-999,1.0,2,3,1,-3.0,-1.0,3.0,0.0,0.0,1.0,101
30,Practice,970.99,P13,1094.8,1096.32,8.0,A,mid,0.78,11,0.68,16,0.88,5,0.58,26,-999,1.0,2,1,3,3.0,2.0,3.0,1.0,3.0,1.0,111
30,Practice,970.99,P14,1104.67,1106.18,7.33,A,right,0.72,11,0.62,17,0.82,3,0.52,24,-999,2.0,3,2,1,-3.0,2.0,-3.0,2.0,-3.0,-1.0,0
30,Practice,970.99,P15,1113.85,1115.36,8.43,B,right,0.78,7,0.68,14,0.88,5,0.58,26,-999,2.0,2,3,1,3.0,-2.0,3.0,-1.0,3.0,1.0,10
30,Practice,970.99,P16,1124.13,1125.64,5.89,C,right,0.78,7,0.65,13,0.82,2,0.52,23,-999,2.0,2,1,3,3.0,-2.0,0.0,-2.0,-3.0,-2.0,1
30,Practice,970.99,P17,1131.88,1133.39,4.66,A,right,0.72,10,0.65,13,0.82,5,0.52,26,-999,2.0,3,2,1,-3.0,1.0,0.0,-2.0,-3.0,1.0,110
30,Practice,970.99,P18,1138.39,1139.91,4.87,B,left,0.78,7,0.68,13,0.88,2,0.58,23,-999,2.0,3,1,2,3.0,-2.0,3.0,-2.0,3.0,-2.0,10
30,Practice,970.99,P19,1145.12,1146.64,6.59,A,right,0.78,11,0.62,15,0.85,4,0.55,25,-999,1.0,3,1,2,3.0,2.0,-3.0,0.0,0.0,0.0,110
30,Practice,970.99,P20,1153.57,1155.08,5.67,B,right,0.72,7,0.65,14,0.88,4,0.58,25,-999,1.0,1,3,2,-3.0,-2.0,0.0,-1.0,3.0,0.0,11
30,Practice,970.99,P21,1161.1,1162.62,8.61,A,right,0.78,9,0.65,16,0.85,2,0.55,23,-999,1.0,3,1,2,3.0,0.0,0.0,1.0,0.0,-2.0,0
30,Practice,970.99,P22,1171.58,1173.1,7.44,B,right,0.72,9,0.62,15,0.85,2,0.55,23,-999,1.0,1,3,2,-3.0,0.0,-3.0,0.0,0.0,-2.0,10
30,Practice,970.99,P23,1180.88,1182.39,8.35,B,left,0.72,7,0.65,13,0.88,3,0.58,24,-999,1.0,3,1,2,-3.0,-2.0,0.0,-2.0,3.0,-1.0,100
30,Practice,970.99,P24,1191.09,1192.61,6.34,B,left,0.78,7,0.65,13,0.82,5,0.52,26,-999,2.0,2,1,3,3.0,-2.0,0.0,-2.0,-3.0,1.0,10
30,Practice,970.99,P25,1199.29,1200.8,4.91,A,mid,0.78,10,0.68,13,0.85,4,0.55,25,-999,1.0,2,3,1,3.0,1.0,3.0,-2.0,0.0,0.0,111
30,Estimation1,1350.45,E1,1350.52,1352.04,8.0,B,left,0.75,11,0.65,15,0.85,-999,0.55,20,3,,2,1,3,,,,,,,11
30,Estimation1,1350.45,E2,1360.37,1361.89,5.08,B,right,0.75,12,0.65,15,0.85,-999,0.55,20,1,2.0,1,3,2,,,,,,,101
30,Estimation1,1350.45,E3,1367.3,1368.82,7.76,A,right,0.75,12,0.65,15,0.85,-999,0.55,28,3,,3,1,2,,,,,,,100
30,Estimation1,1350.45,E4,1376.91,1378.43,5.94,C,left,0.75,12,0.65,15,0.85,6,0.55,28,1,2.0,2,3,1,,,,,,,101
30,Estimation1,1350.45,E5,1384.71,1386.23,9.3,A,left,0.75,12,0.65,15,0.85,6,0.55,24,2,1.0,1,2,3,,,,,,,1
30,Estimation1,1350.45,E6,1395.86,1397.37,11.13,B,left,0.75,12,0.65,15,0.85,8,0.55,24,1,2.0,2,1,3,,,,,,,101
30,Estimation1,1350.45,E7,1408.85,1410.37,5.42,C,right,0.75,12,0.65,15,0.85,8,0.55,26,2,1.0,1,2,3,,,,,,,100
30,Estimation1,1350.45,E8,1416.14,1417.65,10.94,B,right,0.75,12,0.65,15,0.85,7,0.55,26,1,2.0,2,3,1,,,,,,,100
30,Estimation1,1350.45,E9,1428.93,1430.45,5.88,A,right,0.75,12,0.65,15,0.85,7,0.55,27,2,1.0,3,2,1,,,,,,,100
30,Estimation1,1350.45,E10,1436.66,1438.18,9.34,B,right,0.75,12,0.65,15,0.85,8,0.55,27,1,2.0,1,3,2,,,,,,,0
30,Estimation1,1350.45,E11,1447.86,1449.38,5.78,C,right,0.75,12,0.65,15,0.85,8,0.55,28,2,1.0,1,2,3,,,,,,,101
30,Estimation1,1350.45,E12,1455.51,1457.02,4.02,C,right,0.75,12,0.65,15,0.85,8,0.55,28,1,2.0,2,1,3,,,,,,,110
30,1,1466.16,1,1466.22,1467.74,8.93,C,left,0.19,52,0.59,16,0.81,12,-999.0,-999,-999,99.0,3,2,1,0.0,0.0,0.0,0.0,0.0,0.0,101
30,1,1466.16,2,1477.02,1478.53,7.45,A,left,0.72,11,0.68,15,0.88,8,0.58,28,-999,2.0,1,3,2,-3.0,-1.0,3.0,0.0,3.0,0.0,0
30,1,1466.16,3,1486.33,1487.85,8.82,A,left,0.78,12,0.65,15,0.76,11,0.63,14,-999,32.0,1,3,2,3.0,0.0,0.0,0.0,-3.0,-1.0,0
30,1,1466.16,4,1497.01,1498.53,13.96,A,mid,0.75,12,0.65,15,0.73,11,0.63,14,-999,31.0,2,1,3,0.0,0.0,0.0,0.0,0.0,-1.0,111
30,1,1466.16,5,1512.82,1514.34,11.1,A,left,0.75,12,0.62,14,0.88,8,0.58,28,-999,2.0,1,3,2,0.0,0.0,-3.0,-1.0,3.0,0.0,110
30,1,1466.16,6,1525.78,1527.3,7.51,A,left,0.75,12,0.65,14,0.73,11,0.63,13,-999,31.0,1,3,2,0.0,0.0,0.0,-1.0,0.0,0.0,111
30,1,1466.16,7,1535.15,1536.66,5.74,A,right,0.72,12,0.68,14,0.7,11,0.66,13,-999,32.0,3,2,1,-3.0,0.0,3.0,-1.0,0.0,-1.0,111
30,1,1466.16,8,1542.74,1544.26,12.36,A,left,0.78,11,0.62,15,0.85,7,0.55,27,-999,1.0,1,3,2,3.0,-1.0,-3.0,0.0,0.0,-1.0,101
30,1,1466.16,9,1556.97,1558.49,9.56,A,left,0.75,12,0.65,15,0.85,8,0.55,28,-999,1.0,1,2,3,0.0,0.0,0.0,0.0,0.0,0.0,101
30,1,1466.16,10,1568.39,1569.9,14.07,A,right,0.75,12,0.65,15,0.73,11,0.63,14,-999,31.0,3,2,1,0.0,0.0,0.0,0.0,0.0,0.0,1
30,1,1466.16,11,1584.32,1585.83,11.57,C,mid,0.24,41,0.37,27,0.76,13,-999.0,-999,-999,99.0,1,3,2,0.0,0.0,0.0,0.0,0.0,0.0,100
30,1,1466.16,12,1597.74,1599.26,6.39,C,left,0.19,52,0.56,17,0.8,12,-999.0,-999,-999,99.0,2,3,1,0.0,0.0,0.0,0.0,0.0,0.0,101
30,1,1466.16,13,1605.99,1607.51,5.4,A,right,0.75,12,0.62,15,0.88,7,0.58,27,-999,1.0,3,2,1,0.0,0.0,-3.0,0.0,3.0,-1.0,111
30,1,1466.16,14,1613.24,1614.76,10.79,B,right,0.78,11,0.68,14,0.76,10,0.66,13,-999,32.0,1,3,2,3.0,-1.0,3.0,-1.0,3.0,-1.0,101
30,1,1466.16,15,1625.89,1627.4,16.34,A,right,0.78,11,0.68,15,0.88,8,0.58,28,-999,1.0,3,1,2,3.0,-1.0,3.0,0.0,3.0,0.0,0
30,1,1466.16,16,1644.08,1645.6,16.81,B,left,0.72,11,0.65,15,0.85,8,0.55,28,-999,2.0,3,1,2,-3.0,-1.0,0.0,0.0,0.0,0.0,0
30,1,1466.16,17,1662.76,1664.27,8.94,B,left,0.72,12,0.65,15,0.82,7,0.52,27,-999,2.0,3,1,2,-3.0,0.0,0.0,0.0,-3.0,-1.0,111
30,1,1466.16,18,1673.55,1675.07,8.48,C,mid,0.32,31,0.48,20,0.85,11,-999.0,-999,-999,99.0,3,1,2,0.0,0.0,0.0,0.0,0.0,0.0,10
30,1,1466.16,19,1683.9,1685.42,9.06,A,right,0.72,12,0.68,15,0.82,7,0.52,27,-999,1.0,3,2,1,-3.0,0.0,3.0,0.0,-3.0,-1.0,110
30,1,1466.16,20,1694.81,1696.33,7.98,A,mid,0.72,11,0.65,14,0.7,10,0.63,13,-999,31.0,2,1,3,-3.0,-1.0,0.0,-1.0,3.0,-1.0,0
30,1,1466.16,21,1704.64,1706.16,13.15,A,mid,0.75,12,0.65,15,0.82,7,0.52,27,-999,1.0,2,1,3,0.0,0.0,0.0,0.0,-3.0,-1.0,11
30,1,1466.16,22,1719.66,1721.17,8.65,C,right,0.72,12,0.62,14,0.85,8,0.55,28,-999,2.0,2,1,3,-3.0,0.0,-3.0,-1.0,0.0,0.0,101
30,1,1466.16,23,1730.15,1731.67,10.45,C,right,0.75,11,0.68,15,0.88,8,0.58,28,-999,1.0,2,1,3,0.0,-1.0,3.0,0.0,3.0,0.0,1
30,1,1466.16,24,1742.46,1743.98,7.42,A,mid,0.78,12,0.68,15,0.82,8,0.52,28,-999,1.0,2,3,1,3.0,0.0,3.0,0.0,-3.0,0.0,11
30,1,1466.16,25,1751.75,1753.26,18.64,A,left,0.75,11,0.65,14,0.73,10,0.63,13,-999,32.0,1,2,3,0.0,-1.0,0.0,-1.0,3.0,0.0,100
30,1,1466.16,26,1772.24,1773.76,16.61,A,left,0.78,11,0.68,15,0.76,10,0.66,14,-999,31.0,1,3,2,3.0,-1.0,3.0,0.0,0.0,0.0,11
30,1,1466.16,27,1790.72,1792.23,10.47,A,left,0.72,12,0.62,15,0.7,11,0.6,14,-999,31.0,1,2,3,-3.0,0.0,-3.0,0.0,0.0,-1.0,101
30,1,1466.16,28,1803.05,1804.56,10.03,A,left,0.75,12,0.65,14,0.73,11,0.63,13,-999,31.0,1,2,3,0.0,0.0,0.0,-1.0,-3.0,-1.0,111
30,1,1466.16,29,1814.93,1816.44,8.71,B,left,0.75,11,0.62,15,0.88,8,0.58,28,-999,1.0,2,1,3,0.0,-1.0,-3.0,0.0,3.0,0.0,101
30,1,1466.16,30,1825.49,1827.01,11.66,C,left,0.72,12,0.62,14,0.85,8,0.55,28,-999,2.0,2,3,1,-3.0,0.0,-3.0,-1.0,0.0,0.0,100
30,1,1466.16,31,1839.0,1840.52,6.75,A,mid,0.78,11,0.68,15,0.85,7,0.55,27,-999,1.0,2,1,3,3.0,-1.0,3.0,0.0,0.0,-1.0,0
30,1,1466.16,32,1847.62,1849.13,9.53,A,mid,0.78,12,0.62,14,0.85,7,0.55,27,-999,1.0,2,3,1,3.0,0.0,-3.0,-1.0,0.0,-1.0,110
30,1,1466.16,33,1859.0,1860.51,7.8,A,left,0.78,12,0.62,14,0.85,8,0.55,28,-999,2.0,1,2,3,3.0,0.0,-3.0,-1.0,0.0,0.0,10
30,1,1466.16,34,1868.66,1870.17,14.6,B,right,0.75,11,0.62,15,0.73,10,0.6,14,-999,32.0,1,3,2,0.0,-1.0,-3.0,0.0,-3.0,0.0,100
30,1,1466.16,35,1885.12,1886.64,7.59,B,left,0.75,11,0.68,14,0.85,7,0.55,27,-999,2.0,3,1,2,0.0,-1.0,3.0,-1.0,0.0,-1.0,110
30,1,1466.16,36,1894.57,1896.08,5.42,A,mid,0.75,11,0.68,14,0.73,10,0.66,13,-999,31.0,2,3,1,0.0,-1.0,3.0,-1.0,0.0,-1.0,0
30,1,1466.16,37,1901.85,1903.36,9.8,B,left,0.32,31,0.6,16,0.78,12,-999.0,-999,-999,99.0,2,1,3,0.0,0.0,0.0,0.0,0.0,0.0,111
30,1,1466.16,38,1931.94,1933.45,10.99,B,mid,0.75,11,0.68,14,0.73,10,0.66,13,-999,32.0,1,2,3,0.0,-1.0,3.0,-1.0,0.0,0.0,100
30,1,1466.16,39,1944.78,1946.3,6.84,B,mid,0.78,11,0.62,15,0.76,10,0.6,14,-999,32.0,1,2,3,3.0,-1.0,-3.0,0.0,-3.0,-1.0,110
30,1,1466.16,40,1953.48,1955.0,7.97,A,left,0.75,12,0.65,14,0.85,7,0.55,27,-999,2.0,1,2,3,0.0,0.0,0.0,-1.0,0.0,-1.0,11
30,1,1466.16,41,1963.31,1964.83,11.73,C,mid,0.72,11,0.62,14,0.88,8,0.58,28,-999,2.0,3,1,2,-3.0,-1.0,-3.0,-1.0,3.0,0.0,110
30,1,1466.16,42,1976.89,1978.41,5.79,A,mid,0.78,12,0.65,14,0.82,7,0.52,27,-999,2.0,2,1,3,3.0,0.0,0.0,-1.0,-3.0,-1.0,110
30,1,1466.16,43,1984.54,1986.05,5.61,C,mid,0.27,37,0.47,21,0.86,11,-999.0,-999,-999,99.0,1,3,2,0.0,0.0,0.0,0.0,0.0,0.0,1
30,1,1466.16,44,1992.0,1993.52,11.54,A,left,0.72,12,0.68,15,0.82,8,0.52,28,-999,2.0,1,2,3,-3.0,0.0,3.0,0.0,-3.0,0.0,110
30,1,1466.16,45,2005.4,2006.91,11.17,B,left,0.72,12,0.68,15,0.82,7,0.52,27,-999,1.0,3,1,2,-3.0,0.0,3.0,0.0,-3.0,-1.0,10
30,1,1466.16,46,2018.43,2019.94,9.91,A,right,0.72,12,0.65,15,0.82,7,0.52,27,-999,1.0,3,2,1,-3.0,0.0,0.0,0.0,-3.0,-1.0,1
30,1,1466.16,47,2030.19,2031.71,6.8,B,left,0.72,11,0.62,15,0.7,10,0.6,14,-999,32.0,2,1,3,-3.0,-1.0,-3.0,0.0,-3.0,-1.0,10
30,1,1466.16,48,2038.84,2040.35,10.97,C,left,0.28,35,0.67,14,0.78,12,-999.0,-999,-999,99.0,2,3,1,0.0,0.0,0.0,0.0,0.0,0.0,11
30,1,1466.16,49,2051.67,2053.18,6.23,A,left,0.72,11,0.65,15,0.7,10,0.63,14,-999,31.0,1,2,3,-3.0,-1.0,0.0,0.0,3.0,-1.0,10
30,1,1466.16,50,2059.75,2061.26,8.66,B,mid,0.72,12,0.62,15,0.7,11,0.6,14,-999,32.0,1,2,3,-3.0,0.0,-3.0,0.0,0.0,0.0,11
30,1,1466.16,51,2070.26,2071.78,8.68,A,right,0.78,12,0.62,14,0.76,11,0.6,13,-999,31.0,3,2,1,3.0,0.0,-3.0,-1.0,-3.0,0.0,0
30,1,1466.16,52,2080.81,2082.32,11.13,A,mid,0.75,11,0.65,15,0.73,10,0.63,14,-999,31.0,2,1,3,0.0,-1.0,0.0,0.0,3.0,-1.0,1
30,1,1466.16,53,2093.79,2095.3,8.33,A,mid,0.78,11,0.65,15,0.76,10,0.63,14,-999,32.0,2,1,3,3.0,-1.0,0.0,0.0,-3.0,-1.0,10
30,1,1466.16,54,2103.97,2105.48,6.48,A,left,0.78,12,0.65,14,0.82,8,0.52,28,-999,1.0,1,2,3,3.0,0.0,0.0,-1.0,-3.0,0.0,0
30,1,1466.16,55,2112.3,2113.81,12.74,A,mid,0.72,12,0.62,14,0.7,11,0.6,13,-999,32.0,2,1,3,-3.0,0.0,-3.0,-1.0,0.0,0.0,100
30,1,1466.16,56,2126.89,2128.41,14.8,B,mid,0.72,11,0.68,14,0.7,10,0.66,13,-999,31.0,1,2,3,-3.0,-1.0,3.0,-1.0,-3.0,0.0,0
30,1,1466.16,57,2143.54,2145.05,12.93,C,left,0.72,12,0.68,14,0.88,8,0.58,28,-999,2.0,2,3,1,-3.0,0.0,3.0,-1.0,3.0,0.0,10
30,1,1466.16,58,2158.33,2159.85,13.44,A,left,0.78,11,0.62,14,0.76,10,0.6,13,-999,32.0,1,2,3,3.0,-1.0,-3.0,-1.0,0.0,-1.0,101
30,1,1466.16,59,2173.63,2175.14,9.24,A,left,0.72,12,0.65,14,0.7,11,0.63,13,-999,32.0,1,3,2,-3.0,0.0,0.0,-1.0,3.0,0.0,111
30,1,1466.16,60,2184.72,2186.24,11.16,B,left,0.72,11,0.65,15,0.7,10,0.63,14,-999,31.0,2,1,3,-3.0,-1.0,0.0,0.0,3.0,-1.0,100
30,1,1466.16,61,2197.74,2199.25,10.64,C,mid,0.72,11,0.65,15,0.88,7,0.58,27,-999,2.0,3,1,2,-3.0,-1.0,0.0,0.0,3.0,-1.0,110
30,1,1466.16,62,2210.23,2211.75,14.73,C,left,0.29,34,0.42,23,0.72,13,-999.0,-999,-999,99.0,3,2,1,0.0,0.0,0.0,0.0,0.0,0.0,1
30,1,1466.16,63,2226.83,2228.34,5.92,C,mid,0.31,32,0.38,26,0.85,11,-999.0,-999,-999,99.0,3,1,2,0.0,0.0,0.0,0.0,0.0,0.0,111
30,1,1466.16,64,2234.59,2236.11,8.14,A,right,0.78,11,0.62,15,0.76,10,0.6,14,-999,31.0,3,2,1,3.0,-1.0,-3.0,0.0,0.0,0.0,0
30,1,1466.16,65,2244.59,2246.11,10.16,C,right,0.16,62,0.46,21,0.87,11,-999.0,-999,-999,99.0,1,2,3,0.0,0.0,0.0,0.0,0.0,0.0,0
30,1,1466.16,66,2256.6,2258.72,12.66,A,mid,0.72,12,0.62,15,0.7,11,0.6,14,-999,32.0,2,3,1,-3.0,0.0,-3.0,0.0,3.0,-1.0,110
30,1,1466.16,67,2271.71,2273.23,11.77,A,mid,0.78,12,0.62,15,0.76,11,0.6,14,-999,32.0,2,1,3,3.0,0.0,-3.0,0.0,3.0,0.0,101
30,1,1466.16,68,2285.34,2286.86,6.92,A,mid,0.78,12,0.65,15,0.76,11,0.63,14,-999,32.0,2,1,3,3.0,0.0,0.0,0.0,0.0,0.0,111
30,1,1466.16,69,2294.12,2295.64,7.65,A,left,0.78,12,0.68,15,0.88,7,0.58,27,-999,1.0,1,3,2,3.0,0.0,3.0,0.0,3.0,-1.0,10
30,1,1466.16,70,2303.64,2305.15,6.83,A,left,0.78,12,0.68,15,0.76,11,0.66,14,-999,31.0,1,2,3,3.0,0.0,3.0,0.0,0.0,0.0,111
30,1,1466.16,71,2312.33,2313.85,10.02,A,right,0.75,11,0.62,15,0.88,7,0.58,27,-999,2.0,3,1,2,0.0,-1.0,-3.0,0.0,3.0,-1.0,111
30,1,1466.16,72,2324.21,2325.73,8.6,B,mid,0.72,11,0.68,14,0.85,8,0.55,28,-999,2.0,3,2,1,-3.0,-1.0,3.0,-1.0,0.0,0.0,100
30,1,1466.16,73,2334.68,2336.19,10.7,C,mid,0.27,37,0.61,16,0.89,11,-999.0,-999,-999,99.0,3,1,2,0.0,0.0,0.0,0.0,0.0,0.0,0
30,1,1466.16,74,2347.22,2348.74,7.13,A,left,0.78,12,0.65,14,0.82,7,0.52,27,-999,1.0,1,3,2,3.0,0.0,0.0,-1.0,-3.0,-1.0,110
30,1,1466.16,75,2356.2,2357.72,8.13,A,right,0.72,12,0.65,15,0.7,11,0.63,14,-999,31.0,3,1,2,-3.0,0.0,0.0,0.0,-3.0,-1.0,110
30,Estimation2,2452.93,E1,2452.99,2454.51,8.24,B,left,0.75,11,0.65,15,0.85,-999,0.55,20,3,,2,1,3,,,,,,,110
30,Estimation2,2452.93,E2,2463.09,2464.6,6.27,B,mid,0.75,12,0.65,15,0.85,-999,0.55,20,1,2.0,3,2,1,,,,,,,110
30,Estimation2,2452.93,E3,2471.22,2472.73,3.64,A,right,0.75,12,0.65,15,0.85,-999,0.55,28,3,,3,2,1,,,,,,,100
30,Estimation2,2452.93,E4,2476.72,2478.23,3.31,C,right,0.75,12,0.65,15,0.85,6,0.55,28,1,2.0,2,1,3,,,,,,,110
30,Estimation2,2452.93,E5,2481.88,2483.4,3.71,A,left,0.75,12,0.65,15,0.85,6,0.55,24,2,1.0,1,2,3,,,,,,,0
30,Estimation2,2452.93,E6,2487.45,2488.96,3.77,B,left,0.75,12,0.65,15,0.85,8,0.55,24,1,2.0,3,1,2,,,,,,,1
30,Estimation2,2452.93,E7,2493.08,2494.59,5.1,A,left,0.75,12,0.65,15,0.85,8,0.55,26,2,1.0,1,3,2,,,,,,,1
30,Estimation2,2452.93,E8,2500.04,2501.56,11.26,B,right,0.75,12,0.65,15,0.85,9,0.55,26,1,2.0,1,3,2,,,,,,,0
30,Estimation2,2452.93,E9,2513.15,2514.67,3.68,C,right,0.75,12,0.65,15,0.85,9,0.55,27,2,1.0,1,2,3,,,,,,,0
30,Estimation2,2452.93,E10,2518.7,2520.22,4.94,C,mid,0.75,12,0.65,15,0.85,9,0.55,27,1,2.0,3,1,2,,,,,,,101
30,2,2527.56,1,2527.63,2529.15,4.77,C,right,0.28,35,0.67,14,0.78,12,-999.0,-999,-999,99.0,1,2,3,0.0,0.0,0.0,0.0,0.0,0.0,111
30,2,2527.56,2,2534.25,2535.76,7.62,A,right,0.72,12,0.62,14,0.7,11,0.6,13,-999,32.0,3,2,1,-3.0,0.0,-3.0,-1.0,0.0,0.0,111
30,2,2527.56,3,2543.73,2545.24,8.61,A,right,0.78,11,0.68,14,0.76,10,0.66,13,-999,32.0,3,2,1,3.0,-1.0,3.0,-1.0,3.0,-1.0,110
30,2,2527.56,4,2554.19,2555.71,10.18,B,right,0.72,12,0.68,15,0.82,8,0.52,26,-999,1.0,2,3,1,-3.0,0.0,3.0,0.0,-3.0,-1.0,110
30,2,2527.56,5,2566.24,2567.75,10.21,A,right,0.72,12,0.62,14,0.85,9,0.55,27,-999,2.0,3,1,2,-3.0,0.0,-3.0,-1.0,0.0,0.0,11
30,2,2527.56,6,2578.3,2579.82,7.22,C,right,0.72,11,0.62,14,0.88,9,0.58,27,-999,2.0,1,2,3,-3.0,-1.0,-3.0,-1.0,3.0,0.0,101
30,2,2527.56,7,2587.38,2588.9,8.3,A,left,0.72,11,0.62,15,0.7,10,0.6,14,-999,32.0,1,3,2,-3.0,-1.0,-3.0,0.0,-3.0,-1.0,111
30,2,2527.56,8,2597.53,2599.04,4.37,C,right,0.24,41,0.37,27,0.76,13,-999.0,-999,-999,99.0,2,1,3,0.0,0.0,0.0,0.0,0.0,0.0,11
30,2,2527.56,9,2603.76,2605.28,9.58,A,mid,0.72,12,0.65,15,0.82,8,0.52,26,-999,2.0,2,1,3,-3.0,0.0,0.0,0.0,-3.0,-1.0,100
30,2,2527.56,10,2615.2,2616.72,7.18,A,right,0.75,11,0.68,14,0.73,10,0.66,13,-999,31.0,3,2,1,0.0,-1.0,3.0,-1.0,0.0,-1.0,0
30,2,2527.56,11,2624.25,2625.77,6.86,C,left,0.32,31,0.48,20,0.85,11,-999.0,-999,-999,99.0,2,3,1,0.0,0.0,0.0,0.0,0.0,0.0,111
30,2,2527.56,12,2632.98,2634.5,6.46,A,right,0.72,11,0.65,14,0.7,10,0.63,13,-999,31.0,3,2,1,-3.0,-1.0,0.0,-1.0,3.0,-1.0,0
30,2,2527.56,13,2641.3,2642.81,5.06,A,mid,0.72,11,0.65,15,0.7,10,0.63,14,-999,31.0,2,1,3,-3.0,-1.0,0.0,0.0,3.0,-1.0,1
30,2,2527.56,14,2648.21,2649.73,12.83,A,right,0.75,11,0.62,15,0.73,10,0.6,14,-999,32.0,3,2,1,0.0,-1.0,-3.0,0.0,-3.0,0.0,10
30,2,2527.56,15,2662.91,2664.42,11.66,C,mid,0.19,52,0.59,16,0.81,12,-999.0,-999,-999,99.0,3,1,2,0.0,0.0,0.0,0.0,0.0,0.0,110
30,2,2527.56,16,2676.42,2677.94,7.35,A,right,0.78,12,0.65,15,0.76,11,0.63,14,-999,32.0,3,1,2,3.0,0.0,0.0,0.0,0.0,0.0,0
30,2,2527.56,17,2685.63,2687.15,5.97,C,right,0.32,31,0.6,16,0.78,12,-999.0,-999,-999,99.0,2,1,3,0.0,0.0,0.0,0.0,0.0,0.0,110
30,2,2527.56,18,2693.46,2694.98,17.2,C,mid,0.27,37,0.61,16,0.89,11,-999.0,-999,-999,99.0,3,1,2,0.0,0.0,0.0,0.0,0.0,0.0,110
30,2,2527.56,19,2712.52,2714.04,5.78,B,right,0.75,11,0.68,14,0.85,8,0.55,26,-999,2.0,1,3,2,0.0,-1.0,3.0,-1.0,0.0,-1.0,0
30,2,2527.56,20,2720.16,2721.67,6.46,A,right,0.75,11,0.65,15,0.73,10,0.63,14,-999,31.0,3,2,1,0.0,-1.0,0.0,0.0,3.0,-1.0,1
30,2,2527.56,21,2728.47,2729.99,9.33,A,mid,0.75,12,0.62,14,0.88,9,0.58,27,-999,2.0,2,3,1,0.0,0.0,-3.0,-1.0,3.0,0.0,11
30,2,2527.56,22,2739.67,2741.18,10.94,A,left,0.78,12,0.68,15,0.82,9,0.52,27,-999,1.0,1,3,2,3.0,0.0,3.0,0.0,-3.0,0.0,10
30,2,2527.56,23,2752.46,2753.98,7.3,B,mid,0.72,11,0.68,15,0.88,9,0.58,27,-999,2.0,3,2,1,-3.0,-1.0,3.0,0.0,3.0,0.0,10
30,2,2527.56,24,2761.63,2763.14,11.46,A,right,0.78,12,0.62,14,0.85,8,0.55,26,-999,1.0,3,1,2,3.0,0.0,-3.0,-1.0,0.0,-1.0,11
30,2,2527.56,25,2774.94,2776.45,4.3,C,left,0.72,11,0.68,14,0.85,9,0.55,27,-999,2.0,2,3,1,-3.0,-1.0,3.0,-1.0,0.0,0.0,101
30,2,2527.56,26,2781.09,2782.6,7.59,A,right,0.75,12,0.65,15,0.73,11,0.63,14,-999,31.0,3,2,1,0.0,0.0,0.0,0.0,0.0,0.0,10
30,2,2527.56,27,2790.53,2792.05,7.97,A,right,0.72,12,0.65,14,0.7,11,0.63,13,-999,32.0,3,2,1,-3.0,0.0,0.0,-1.0,3.0,0.0,111
30,2,2527.56,28,2800.36,2801.88,4.29,A,right,0.75,12,0.65,14,0.73,11,0.63,13,-999,31.0,3,1,2,0.0,0.0,0.0,-1.0,-3.0,-1.0,10
30,2,2527.56,29,2806.51,2808.03,7.56,A,mid,0.78,12,0.62,14,0.85,9,0.55,27,-999,2.0,2,3,1,3.0,0.0,-3.0,-1.0,0.0,0.0,100
30,2,2527.56,30,2815.93,2817.44,7.95,A,left,0.78,12,0.65,15,0.76,11,0.63,14,-999,32.0,1,2,3,3.0,0.0,0.0,0.0,-3.0,-1.0,11
30,2,2527.56,31,2825.74,2827.25,6.98,A,mid,0.75,12,0.65,15,0.82,8,0.52,26,-999,1.0,2,3,1,0.0,0.0,0.0,0.0,-3.0,-1.0,1
30,2,2527.56,32,2834.59,2836.1,8.58,C,mid,0.75,11,0.68,15,0.88,9,0.58,27,-999,1.0,1,3,2,0.0,-1.0,3.0,0.0,3.0,0.0,0
30,2,2527.56,33,2845.02,2846.53,8.48,B,left,0.72,12,0.65,15,0.82,8,0.52,26,-999,1.0,3,1,2,-3.0,0.0,0.0,0.0,-3.0,-1.0,100
30,2,2527.56,34,2855.36,2856.88,10.06,C,right,0.72,12,0.62,14,0.85,9,0.55,27,-999,2.0,1,2,3,-3.0,0.0,-3.0,-1.0,0.0,0.0,0
30,2,2527.56,35,2867.28,2868.79,9.14,B,left,0.75,11,0.68,14,0.73,10,0.66,13,-999,32.0,2,1,3,0.0,-1.0,3.0,-1.0,0.0,0.0,10
30,2,2527.56,36,2878.27,2879.79,17.78,C,mid,0.72,11,0.65,15,0.85,9,0.55,27,-999,2.0,1,3,2,-3.0,-1.0,0.0,0.0,0.0,0.0,111
30,2,2527.56,37,2897.9,2899.42,5.41,C,right,0.31,32,0.38,26,0.85,11,-999.0,-999,-999,99.0,1,2,3,0.0,0.0,0.0,0.0,0.0,0.0,10
30,2,2527.56,38,2931.0,2932.52,5.51,A,right,0.72,12,0.62,15,0.7,11,0.6,14,-999,32.0,3,2,1,-3.0,0.0,-3.0,0.0,3.0,-1.0,100
30,2,2527.56,39,2938.37,2939.89,5.86,A,left,0.75,12,0.65,15,0.73,11,0.63,14,-999,31.0,1,2,3,0.0,0.0,0.0,0.0,0.0,-1.0,101
30,2,2527.56,40,2946.08,2947.6,4.56,A,left,0.72,11,0.65,15,0.7,10,0.63,14,-999,31.0,1,3,2,-3.0,-1.0,0.0,0.0,3.0,-1.0,11
30,2,2527.56,41,2952.5,2954.01,8.9,B,right,0.75,11,0.65,14,0.73,10,0.63,13,-999,32.0,1,3,2,0.0,-1.0,0.0,-1.0,3.0,0.0,11
30,2,2527.56,42,2963.25,2964.76,8.92,B,left,0.72,12,0.68,14,0.88,9,0.58,27,-999,2.0,3,1,2,-3.0,0.0,3.0,-1.0,3.0,0.0,111
30,2,2527.56,43,2974.02,2975.54,6.79,B,right,0.72,12,0.68,14,0.7,11,0.66,13,-999,32.0,1,3,2,-3.0,0.0,3.0,-1.0,0.0,-1.0,111
30,2,2527.56,44,2982.67,2984.19,5.48,A,mid,0.78,12,0.65,14,0.82,8,0.52,26,-999,2.0,2,1,3,3.0,0.0,0.0,-1.0,-3.0,-1.0,10
30,2,2527.56,45,2990.0,2991.52,5.34,C,right,0.19,52,0.56,17,0.8,12,-999.0,-999,-999,99.0,1,2,3,0.0,0.0,0.0,0.0,0.0,0.0,0
30,2,2527.56,46,2997.2,2998.72,7.58,A,right,0.72,11,0.65,15,0.88,8,0.58,26,-999,2.0,3,1,2,-3.0,-1.0,0.0,0.0,3.0,-1.0,0
30,2,2527.56,47,3006.63,3008.15,5.97,A,left,0.78,12,0.68,15,0.88,8,0.58,26,-999,1.0,1,2,3,3.0,0.0,3.0,0.0,3.0,-1.0,100
30,2,2527.56,48,3014.46,3015.98,9.22,C,right,0.78,11,0.68,15,0.88,9,0.58,27,-999,1.0,2,1,3,3.0,-1.0,3.0,0.0,3.0,0.0,101
30,2,2527.56,49,3025.54,3027.06,7.88,A,left,0.72,12,0.62,15,0.7,11,0.6,14,-999,31.0,1,2,3,-3.0,0.0,-3.0,0.0,0.0,-1.0,100
30,2,2527.56,50,3035.27,3036.79,6.67,A,mid,0.78,11,0.65,15,0.76,10,0.63,14,-999,32.0,2,3,1,3.0,-1.0,0.0,0.0,-3.0,-1.0,11
30,2,2527.56,51,3043.8,3045.32,8.01,C,left,0.16,62,0.46,21,0.87,11,-999.0,-999,-999,99.0,3,2,1,0.0,0.0,0.0,0.0,0.0,0.0,11
30,2,2527.56,52,3053.67,3055.18,8.84,A,mid,0.75,11,0.62,15,0.88,8,0.58,26,-999,2.0,2,1,3,0.0,-1.0,-3.0,0.0,3.0,-1.0,10
30,2,2527.56,53,3064.36,3065.88,7.22,A,left,0.78,11,0.68,15,0.85,8,0.55,26,-999,1.0,1,3,2,3.0,-1.0,3.0,0.0,0.0,-1.0,10
30,2,2527.56,54,3073.44,3074.96,7.74,A,mid,0.75,12,0.65,14,0.73,11,0.63,13,-999,31.0,2,1,3,0.0,0.0,0.0,-1.0,0.0,0.0,110
30,2,2527.56,55,3083.04,3084.56,7.95,C,mid,0.29,34,0.42,23,0.72,13,-999.0,-999,-999,99.0,1,3,2,0.0,0.0,0.0,0.0,0.0,0.0,0
30,2,2527.56,56,3092.85,3094.37,5.85,A,left,0.78,12,0.62,15,0.76,11,0.6,14,-999,32.0,1,2,3,3.0,0.0,-3.0,0.0,3.0,0.0,110
30,2,2527.56,57,3100.57,3102.08,16.21,A,mid,0.78,12,0.65,14,0.82,9,0.52,27,-999,1.0,2,3,1,3.0,0.0,0.0,-1.0,-3.0,0.0,111
30,2,2527.56,58,3118.63,3120.15,3.99,A,mid,0.78,11,0.62,15,0.76,10,0.6,14,-999,31.0,2,1,3,3.0,-1.0,-3.0,0.0,0.0,0.0,101
30,2,2527.56,59,3124.48,3125.99,3.47,A,right,0.78,11,0.62,15,0.76,10,0.6,14,-999,32.0,3,2,1,3.0,-1.0,-3.0,0.0,-3.0,-1.0,100
30,2,2527.56,60,3129.81,3131.32,3.95,C,right,0.27,37,0.47,21,0.86,11,-999.0,-999,-999,99.0,1,2,3,0.0,0.0,0.0,0.0,0.0,0.0,111
30,2,2527.56,61,3135.62,3137.14,5.88,A,left,0.78,11,0.62,15,0.85,8,0.55,26,-999,1.0,1,2,3,3.0,-1.0,-3.0,0.0,0.0,-1.0,1
30,2,2527.56,62,3143.35,3144.87,6.15,A,right,0.78,12,0.65,14,0.82,8,0.52,26,-999,1.0,3,2,1,3.0,0.0,0.0,-1.0,-3.0,-1.0,0
30,2,2527.56,63,3151.35,3152.87,7.92,A,mid,0.75,12,0.62,15,0.88,8,0.58,26,-999,1.0,2,3,1,0.0,0.0,-3.0,0.0,3.0,-1.0,10
30,2,2527.56,64,3161.13,3162.65,5.98,A,right,0.78,12,0.68,15,0.76,11,0.66,14,-999,31.0,3,1,2,3.0,0.0,3.0,0.0,0.0,0.0,111
30,2,2527.56,65,3168.96,3170.48,5.01,A,right,0.72,12,0.62,15,0.7,11,0.6,14,-999,32.0,3,2,1,-3.0,0.0,-3.0,0.0,0.0,0.0,110
30,2,2527.56,66,3175.83,3177.34,5.14,A,left,0.75,12,0.65,14,0.85,8,0.55,26,-999,2.0,1,2,3,0.0,0.0,0.0,-1.0,0.0,-1.0,100
30,2,2527.56,67,3182.82,3184.34,5.68,A,left,0.78,11,0.62,14,0.76,10,0.6,13,-999,32.0,1,2,3,3.0,-1.0,-3.0,-1.0,0.0,-1.0,0
30,2,2527.56,68,3190.36,3191.87,6.15,B,mid,0.72,12,0.68,15,0.82,9,0.52,27,-999,2.0,1,2,3,-3.0,0.0,3.0,0.0,-3.0,0.0,10
30,2,2527.56,69,3198.35,3199.87,9.91,A,right,0.78,12,0.62,14,0.76,11,0.6,13,-999,31.0,3,1,2,3.0,0.0,-3.0,-1.0,-3.0,0.0,0
30,2,2527.56,70,3210.12,3211.63,7.05,A,mid,0.75,12,0.65,15,0.85,9,0.55,27,-999,1.0,2,3,1,0.0,0.0,0.0,0.0,0.0,0.0,110
30,2,2527.56,71,3219.03,3220.55,6.08,A,right,0.72,11,0.68,14,0.7,10,0.66,13,-999,31.0,3,2,1,-3.0,-1.0,3.0,-1.0,-3.0,0.0,10
30,2,2527.56,72,3226.96,3228.48,8.29,C,left,0.75,11,0.62,15,0.88,9,0.58,27,-999,1.0,3,2,1,0.0,-1.0,-3.0,0.0,3.0,0.0,110
30,2,2527.56,73,3237.11,3238.62,7.46,A,right,0.78,11,0.68,15,0.76,10,0.66,14,-999,31.0,3,1,2,3.0,-1.0,3.0,0.0,0.0,0.0,10
30,2,2527.56,74,3246.42,3247.94,6.0,A,mid,0.72,12,0.65,15,0.7,11,0.63,14,-999,31.0,2,1,3,-3.0,0.0,0.0,0.0,-3.0,-1.0,1
30,2,2527.56,75,3254.29,3255.8,6.72,A,right,0.72,12,0.68,15,0.82,8,0.52,26,-999,1.0,3,2,1,-3.0,0.0,3.0,0.0,-3.0,-1.0,110
30,Estimation3,3331.39,E1,3331.44,3332.96,3.52,A,left,0.75,11,0.65,15,0.85,-999,0.55,20,3,,1,3,2,,,,,,,110
30,Estimation3,3331.39,E2,3336.81,3338.33,5.61,B,mid,0.75,8,0.65,15,0.85,-999,0.55,20,1,2.0,3,2,1,,,,,,,110
30,Estimation3,3331.39,E3,3344.27,3345.79,4.27,B,mid,0.75,8,0.65,15,0.85,-999,0.55,28,3,,3,2,1,,,,,,,11
30,Estimation3,3331.39,E4,3350.41,3351.92,3.02,C,mid,0.75,10,0.65,15,0.85,-999,0.55,28,1,2.0,1,3,2,,,,,,,111
30,Estimation3,3331.39,E5,3355.29,3356.8,3.8,B,left,0.75,10,0.65,15,0.85,-999,0.55,24,3,,3,1,2,,,,,,,100
30,Estimation3,3331.39,E6,3360.95,3362.47,3.56,B,mid,0.75,11,0.65,15,0.85,-999,0.55,24,1,2.0,3,2,1,,,,,,,11
30,Estimation3,3331.39,E7,3366.37,3367.88,2.62,A,left,0.75,11,0.65,15,0.85,-999,0.55,26,3,,1,2,3,,,,,,,110
30,Estimation3,3331.39,E8,3370.83,3372.35,4.35,C,right,0.75,11,0.65,15,0.85,6,0.55,26,1,2.0,1,2,3,,,,,,,0
30,Estimation3,3331.39,E9,3377.05,3378.56,3.88,A,right,0.75,11,0.65,15,0.85,6,0.55,25,2,1.0,3,2,1,,,,,,,111
30,Estimation3,3331.39,E10,3382.78,3384.29,3.64,B,left,0.75,11,0.65,15,0.85,8,0.55,25,1,2.0,3,1,2,,,,,,,101
30,Estimation3,3331.39,E11,3388.28,3389.79,4.02,A,left,0.75,11,0.65,15,0.85,8,0.55,26,2,1.0,1,2,3,,,,,,,11
30,Estimation3,3331.39,E12,3394.16,3395.67,4.56,C,left,0.75,11,0.65,15,0.85,9,0.55,26,1,2.0,3,2,1,,,,,,,0
30,Estimation3,3331.39,E13,3400.57,3402.09,4.24,C,mid,0.75,11,0.65,15,0.85,9,0.55,26,2,1.0,1,3,2,,,,,,,0
30,3,3408.73,1,3408.8,3410.32,8.73,A,right,0.72,11,0.62,14,0.7,10,0.6,13,-999,32.0,3,1,2,-3.0,0.0,-3.0,-1.0,0.0,0.0,100
30,3,3408.73,2,3419.38,3420.9,5.89,A,mid,0.78,11,0.62,14,0.85,9,0.55,26,-999,2.0,2,1,3,3.0,0.0,-3.0,-1.0,0.0,0.0,110
30,3,3408.73,3,3427.13,3428.65,4.62,A,right,0.78,11,0.68,15,0.76,10,0.66,14,-999,31.0,3,2,1,3.0,0.0,3.0,0.0,0.0,0.0,111
30,3,3408.73,4,3433.61,3435.13,6.51,B,right,0.75,10,0.68,14,0.85,8,0.55,25,-999,2.0,2,3,1,0.0,-1.0,3.0,-1.0,0.0,-1.0,111
30,3,3408.73,5,3441.98,3443.49,4.51,A,mid,0.72,11,0.65,15,0.7,10,0.63,14,-999,31.0,2,1,3,-3.0,0.0,0.0,0.0,-3.0,-1.0,111
30,3,3408.73,6,3448.34,3449.86,6.19,A,mid,0.75,11,0.65,15,0.73,10,0.63,14,-999,31.0,2,3,1,0.0,0.0,0.0,0.0,0.0,-1.0,111
30,3,3408.73,7,3456.39,3457.9,5.44,A,left,0.78,11,0.65,14,0.82,8,0.52,25,-999,2.0,1,2,3,3.0,0.0,0.0,-1.0,-3.0,-1.0,11
30,3,3408.73,8,3463.69,3465.2,4.21,B,left,0.72,10,0.62,15,0.7,9,0.6,14,-999,32.0,3,1,2,-3.0,-1.0,-3.0,0.0,-3.0,-1.0,111
30,3,3408.73,9,3469.75,3471.27,6.73,A,left,0.75,11,0.65,15,0.73,10,0.63,14,-999,31.0,1,3,2,0.0,0.0,0.0,0.0,0.0,0.0,1
30,3,3408.73,10,3478.33,3479.85,8.14,A,right,0.78,10,0.62,14,0.76,9,0.6,13,-999,32.0,3,1,2,3.0,-1.0,-3.0,-1.0,0.0,-1.0,10
30,3,3408.73,11,3488.33,3489.84,5.7,B,mid,0.72,11,0.68,14,0.7,10,0.66,13,-999,32.0,1,2,3,-3.0,0.0,3.0,-1.0,0.0,-1.0,11
30,3,3408.73,12,3495.89,3497.41,8.07,B,right,0.72,10,0.65,15,0.88,8,0.58,25,-999,2.0,1,3,2,-3.0,-1.0,0.0,0.0,3.0,-1.0,10
30,3,3408.73,13,3505.82,3507.34,4.61,A,right,0.78,11,0.62,14,0.76,10,0.6,13,-999,31.0,3,1,2,3.0,0.0,-3.0,-1.0,-3.0,0.0,1
30,3,3408.73,14,3512.29,3513.8,4.4,B,right,0.75,10,0.68,14,0.73,9,0.66,13,-999,32.0,2,3,1,0.0,-1.0,3.0,-1.0,0.0,0.0,101
30,3,3408.73,15,3518.54,3520.05,7.6,A,right,0.78,10,0.62,15,0.76,9,0.6,14,-999,31.0,3,2,1,3.0,-1.0,-3.0,0.0,0.0,0.0,110
30,3,3408.73,16,3527.98,3529.5,5.58,A,right,0.78,11,0.62,14,0.85,8,0.55,25,-999,1.0,3,2,1,3.0,0.0,-3.0,-1.0,0.0,-1.0,111
30,3,3408.73,17,3535.41,3536.93,10.91,C,right,0.29,34,0.42,23,0.72,13,-999.0,-999,-999,99.0,1,2,3,0.0,0.0,0.0,0.0,0.0,0.0,1
30,3,3408.73,18,3548.18,3549.69,7.39,B,mid,0.75,10,0.68,14,0.73,9,0.66,13,-999,31.0,1,2,3,0.0,-1.0,3.0,-1.0,0.0,-1.0,0
30,3,3408.73,19,3557.42,3558.94,3.78,B,right,0.72,11,0.68,15,0.82,9,0.52,26,-999,2.0,2,3,1,-3.0,0.0,3.0,0.0,-3.0,0.0,111
30,3,3408.73,20,3563.05,3564.57,4.87,A,left,0.78,11,0.65,15,0.76,10,0.63,14,-999,32.0,1,3,2,3.0,0.0,0.0,0.0,-3.0,-1.0,11
30,3,3408.73,21,3569.79,3571.3,10.24,C,right,0.75,11,0.62,15,0.88,8,0.58,25,-999,1.0,2,1,3,0.0,0.0,-3.0,0.0,3.0,-1.0,11
30,3,3408.73,22,3581.88,3583.4,7.74,A,left,0.72,11,0.65,15,0.82,8,0.52,25,-999,1.0,1,2,3,-3.0,0.0,0.0,0.0,-3.0,-1.0,110
30,3,3408.73,23,3591.48,3592.99,5.37,C,mid,0.78,10,0.68,15,0.88,9,0.58,26,-999,1.0,3,1,2,3.0,-1.0,3.0,0.0,3.0,0.0,10
30,3,3408.73,24,3598.71,3600.23,9.97,C,right,0.72,10,0.68,15,0.88,9,0.58,26,-999,2.0,2,1,3,-3.0,-1.0,3.0,0.0,3.0,0.0,100
30,3,3408.73,25,3610.54,3612.06,4.87,C,right,0.75,10,0.62,15,0.88,9,0.58,26,-999,1.0,1,2,3,0.0,-1.0,-3.0,0.0,3.0,0.0,11
30,3,3408.73,26,3617.27,3618.79,4.53,A,left,0.78,11,0.68,15,0.82,9,0.52,26,-999,1.0,1,3,2,3.0,0.0,3.0,0.0,-3.0,0.0,111
30,3,3408.73,27,3623.65,3625.17,4.37,A,mid,0.72,10,0.65,15,0.7,9,0.63,14,-999,31.0,2,3,1,-3.0,-1.0,0.0,0.0,3.0,-1.0,11
30,3,3408.73,28,3629.88,3631.4,4.08,C,left,0.32,31,0.48,20,0.85,11,-999.0,-999,-999,99.0,2,3,1,0.0,0.0,0.0,0.0,0.0,0.0,10
30,3,3408.73,29,3635.82,3637.33,4.25,C,left,0.32,31,0.6,16,0.78,12,-999.0,-999,-999,99.0,3,2,1,0.0,0.0,0.0,0.0,0.0,0.0,101
30,3,3408.73,30,3641.91,3643.43,7.64,A,right,0.78,11,0.65,14,0.82,9,0.52,26,-999,1.0,3,2,1,3.0,0.0,0.0,-1.0,-3.0,0.0,111
30,3,3408.73,31,3651.41,3652.93,6.66,C,mid,0.72,11,0.68,14,0.88,9,0.58,26,-999,2.0,3,1,2,-3.0,0.0,3.0,-1.0,3.0,0.0,10
30,3,3408.73,32,3659.92,3661.44,12.03,B,left,0.72,10,0.65,15,0.85,9,0.55,26,-999,2.0,2,1,3,-3.0,-1.0,0.0,0.0,0.0,0.0,110
30,3,3408.73,33,3673.82,3675.34,5.01,A,left,0.78,10,0.68,14,0.76,9,0.66,13,-999,32.0,1,3,2,3.0,-1.0,3.0,-1.0,3.0,-1.0,0
30,3,3408.73,34,3680.68,3682.2,8.25,A,mid,0.78,10,0.62,15,0.76,9,0.6,14,-999,32.0,2,3,1,3.0,-1.0,-3.0,0.0,-3.0,-1.0,11
30,3,3408.73,35,3690.78,3692.3,2.89,C,right,0.31,32,0.38,26,0.85,11,-999.0,-999,-999,99.0,1,2,3,0.0,0.0,0.0,0.0,0.0,0.0,11
30,3,3408.73,36,3695.53,3697.05,5.28,A,right,0.78,11,0.68,15,0.88,8,0.58,25,-999,1.0,3,1,2,3.0,0.0,3.0,0.0,3.0,-1.0,110
30,3,3408.73,37,3702.66,3704.18,5.61,A,right,0.72,11,0.62,15,0.7,10,0.6,14,-999,32.0,3,1,2,-3.0,0.0,-3.0,0.0,0.0,0.0,10
30,3,3408.73,38,3730.93,3732.45,6.56,A,left,0.78,10,0.68,15,0.76,9,0.66,14,-999,31.0,1,3,2,3.0,-1.0,3.0,0.0,0.0,0.0,1
30,3,3408.73,39,3739.35,3740.87,3.45,C,right,0.27,37,0.61,16,0.89,11,-999.0,-999,-999,99.0,2,1,3,0.0,0.0,0.0,0.0,0.0,0.0,11
30,3,3408.73,40,3744.66,3746.18,6.25,A,left,0.78,11,0.65,14,0.82,8,0.52,25,-999,1.0,1,3,2,3.0,0.0,0.0,-1.0,-3.0,-1.0,110
30,3,3408.73,41,3752.78,3754.29,9.96,B,left,0.72,11,0.65,14,0.7,10,0.63,13,-999,32.0,2,1,3,-3.0,0.0,0.0,-1.0,3.0,0.0,100
30,3,3408.73,42,3764.59,3766.11,7.9,A,mid,0.78,10,0.62,15,0.85,8,0.55,25,-999,1.0,2,3,1,3.0,-1.0,-3.0,0.0,0.0,-1.0,10
30,3,3408.73,43,3774.35,3775.87,8.3,B,mid,0.72,10,0.65,15,0.7,9,0.63,14,-999,31.0,3,2,1,-3.0,-1.0,0.0,0.0,3.0,-1.0,1
30,3,3408.73,44,3784.5,3786.02,8.07,A,mid,0.75,10,0.62,15,0.73,9,0.6,14,-999,32.0,2,1,3,0.0,-1.0,-3.0,0.0,-3.0,0.0,10
30,3,3408.73,45,3794.43,3795.95,6.0,C,mid,0.19,52,0.56,17,0.8,12,-999.0,-999,-999,99.0,3,1,2,0.0,0.0,0.0,0.0,0.0,0.0,100
30,3,3408.73,46,3802.3,3803.81,6.08,A,left,0.75,10,0.62,15,0.88,8,0.58,25,-999,2.0,1,2,3,0.0,-1.0,-3.0,0.0,3.0,-1.0,100
30,3,3408.73,47,3810.23,3811.74,4.05,A,mid,0.72,11,0.62,15,0.7,10,0.6,14,-999,31.0,2,3,1,-3.0,0.0,-3.0,0.0,0.0,-1.0,0
30,3,3408.73,48,3816.12,3817.64,9.22,B,mid,0.72,10,0.65,14,0.7,9,0.63,13,-999,31.0,3,2,1,-3.0,-1.0,0.0,-1.0,3.0,-1.0,11
30,3,3408.73,49,3827.19,3828.7,3.78,C,mid,0.19,52,0.59,16,0.81,12,-999.0,-999,-999,99.0,1,3,2,0.0,0.0,0.0,0.0,0.0,0.0,0
30,3,3408.73,50,3832.82,3834.34,8.04,C,mid,0.28,35,0.67,14,0.78,12,-999.0,-999,-999,99.0,3,1,2,0.0,0.0,0.0,0.0,0.0,0.0,110
30,3,3408.73,51,3842.72,3844.23,9.71,C,mid,0.72,10,0.62,14,0.88,9,0.58,26,-999,2.0,1,3,2,-3.0,-1.0,-3.0,-1.0,3.0,0.0,100
30,3,3408.73,52,3854.28,3855.8,4.49,A,left,0.75,11,0.65,14,0.73,10,0.63,13,-999,31.0,1,3,2,0.0,0.0,0.0,-1.0,-3.0,-1.0,111
30,3,3408.73,53,3860.63,3862.14,4.65,A,mid,0.72,11,0.62,14,0.85,9,0.55,26,-999,2.0,2,3,1,-3.0,0.0,-3.0,-1.0,0.0,0.0,111
30,3,3408.73,54,3867.13,3868.64,7.04,B,mid,0.72,11,0.68,15,0.82,8,0.52,25,-999,1.0,3,2,1,-3.0,0.0,3.0,0.0,-3.0,-1.0,101
30,3,3408.73,55,3876.02,3877.54,7.44,A,right,0.72,11,0.62,14,0.85,9,0.55,26,-999,2.0,3,2,1,-3.0,0.0,-3.0,-1.0,0.0,0.0,1
30,3,3408.73,56,3885.32,3886.84,10.29,A,right,0.78,10,0.68,15,0.85,8,0.55,25,-999,1.0,3,1,2,3.0,-1.0,3.0,0.0,0.0,-1.0,100
30,3,3408.73,57,3897.46,3898.98,11.17,A,mid,0.75,11,0.65,15,0.82,8,0.52,25,-999,1.0,2,1,3,0.0,0.0,0.0,0.0,-3.0,-1.0,0
30,3,3408.73,58,3910.49,3912.01,7.11,C,left,0.75,10,0.68,15,0.88,9,0.58,26,-999,1.0,2,3,1,0.0,-1.0,3.0,0.0,3.0,0.0,111
30,3,3408.73,59,3919.46,3920.97,7.05,A,right,0.78,11,0.65,15,0.76,10,0.63,14,-999,32.0,3,2,1,3.0,0.0,0.0,0.0,0.0,0.0,111
30,3,3408.73,60,3928.36,3929.87,15.2,A,mid,0.78,11,0.62,15,0.76,10,0.6,14,-999,32.0,2,1,3,3.0,0.0,-3.0,0.0,3.0,0.0,101
30,3,3408.73,61,3945.42,3946.93,5.87,C,left,0.75,11,0.65,15,0.85,9,0.55,26,-999,1.0,2,3,1,0.0,0.0,0.0,0.0,0.0,0.0,101
30,3,3408.73,62,3953.15,3954.66,9.43,A,left,0.75,11,0.62,14,0.88,9,0.58,26,-999,2.0,1,2,3,0.0,0.0,-3.0,-1.0,3.0,0.0,111
30,3,3408.73,63,3964.43,3965.94,4.21,A,right,0.75,11,0.65,14,0.73,10,0.63,13,-999,31.0,3,1,2,0.0,0.0,0.0,-1.0,0.0,0.0,100
30,3,3408.73,64,3970.49,3972.01,5.38,A,left,0.72,11,0.65,15,0.82,8,0.52,25,-999,2.0,1,3,2,-3.0,0.0,0.0,0.0,-3.0,-1.0,101
30,3,3408.73,65,3977.72,3979.24,5.53,B,right,0.72,11,0.68,15,0.82,8,0.52,25,-999,1.0,1,3,2,-3.0,0.0,3.0,0.0,-3.0,-1.0,100
30,3,3408.73,66,3985.1,3986.62,5.35,C,left,0.24,41,0.37,27,0.76,13,-999.0,-999,-999,99.0,2,3,1,0.0,0.0,0.0,0.0,0.0,0.0,101
30,3,3408.73,67,3992.32,3993.83,6.52,A,left,0.72,11,0.62,15,0.7,10,0.6,14,-999,32.0,1,3,2,-3.0,0.0,-3.0,0.0,3.0,-1.0,111
30,3,3408.73,68,4000.7,4002.22,7.51,B,right,0.72,10,0.68,14,0.85,9,0.55,26,-999,2.0,2,3,1,-3.0,-1.0,3.0,-1.0,0.0,0.0,10
30,3,3408.73,69,4010.06,4011.58,7.94,A,right,0.75,10,0.65,15,0.73,9,0.63,14,-999,31.0,3,2,1,0.0,-1.0,0.0,0.0,3.0,-1.0,0
30,3,3408.73,70,4019.86,4021.38,6.73,A,mid,0.72,10,0.68,14,0.7,9,0.66,13,-999,31.0,2,3,1,-3.0,-1.0,3.0,-1.0,-3.0,0.0,111
30,3,3408.73,71,4028.46,4029.97,8.7,A,mid,0.75,10,0.65,14,0.73,9,0.63,13,-999,32.0,2,3,1,0.0,-1.0,0.0,-1.0,3.0,0.0,10
30,3,3408.73,72,4039.0,4040.52,3.69,C,mid,0.27,37,0.47,21,0.86,11,-999.0,-999,-999,99.0,1,3,2,0.0,0.0,0.0,0.0,0.0,0.0,11
30,3,3408.73,73,4044.55,4046.07,6.51,C,mid,0.16,62,0.46,21,0.87,11,-999.0,-999,-999,99.0,1,3,2,0.0,0.0,0.0,0.0,0.0,0.0,0
30,3,3408.73,74,4052.92,4054.43,9.68,A,mid,0.75,11,0.65,14,0.85,8,0.55,25,-999,2.0,2,1,3,0.0,0.0,0.0,-1.0,0.0,-1.0,110
30,3,3408.73,75,4064.46,4065.98,7.61,A,mid,0.78,10,0.65,15,0.76,9,0.63,14,-999,32.0,2,1,3,3.0,-1.0,0.0,0.0,-3.0,-1.0,111
