subject,block,block_onset,trial,fixation_cross_onset,trial_onset,rt,choice,key,pA,mA,pB,mB,pCA,mCA,pCB,mCB,missing,condition,position_A,position_B,position_C,noise_Ap,noise_Am,noise_Bp,noise_Bm,noise_Cp,noise_Cm,attribute_positions
18,Practice,1222.21,P1,1222.26,1223.78,7.15,A,right,0.78,7,0.62,17,0.85,3,0.55,24,-999,2.0,3,1,2,3.0,-2.0,-3.0,2.0,0.0,-1.0,1
18,Practice,1222.21,P2,1231.28,1232.79,9.4,A,left,0.72,7,0.62,16,0.88,5,0.58,26,-999,2.0,1,2,3,-3.0,-2.0,-3.0,1.0,3.0,1.0,10
18,Practice,1222.21,P3,1242.54,1244.06,1.11,B,right,0.75,11,0.68,13,0.85,4,0.55,25,-999,1.0,2,3,1,0.0,2.0,3.0,-2.0,0.0,0.0,110
18,Practice,1222.21,P4,1245.54,1247.06,0.64,C,mid,0.75,9,0.65,15,0.88,5,0.58,26,-999,1.0,3,1,2,0.0,0.0,0.0,0.0,3.0,1.0,100
18,Practice,1222.21,P5,1248.04,1249.55,1.21,A,left,0.72,11,0.62,13,0.85,6,0.55,27,-999,1.0,1,3,2,-3.0,2.0,-3.0,-2.0,0.0,2.0,101
18,Practice,1222.21,P6,1251.1,1252.62,0.89,B,right,0.78,7,0.62,13,0.82,6,0.52,27,-999,2.0,2,3,1,3.0,-2.0,-3.0,-2.0,-3.0,2.0,110
18,Practice,1222.21,P7,1253.85,1255.37,6.31,C,right,0.75,7,0.65,17,0.85,5,0.55,26,-999,2.0,2,1,3,0.0,-2.0,0.0,2.0,0.0,1.0,111
18,Practice,1222.21,P8,1262.02,1263.53,4.12,B,left,0.72,8,0.68,15,0.82,6,0.52,27,-999,2.0,3,1,2,-3.0,-1.0,3.0,0.0,-3.0,2.0,110
18,Practice,1222.21,P9,1268.0,1269.51,1.73,C,mid,0.78,8,0.62,16,0.88,5,0.58,26,-999,1.0,3,1,2,3.0,-1.0,-3.0,1.0,3.0,1.0,1
18,Practice,1222.21,P10,1271.58,1273.1,3.83,B,mid,0.75,10,0.65,16,0.82,2,0.52,23,-999,2.0,1,2,3,0.0,1.0,0.0,1.0,-3.0,-2.0,101
18,Practice,1222.21,P11,1277.28,1278.8,1.68,B,right,0.72,8,0.65,15,0.85,5,0.55,26,-999,2.0,2,3,1,-3.0,-1.0,0.0,0.0,0.0,1.0,0
18,Practice,1222.21,P12,1280.81,1282.33,8.04,C,left,0.72,8,0.68,15,0.85,5,0.55,26,-999,1.0,2,3,1,-3.0,-1.0,3.0,0.0,0.0,1.0,101
18,Practice,1222.21,P13,1290.71,1292.22,2.54,C,right,0.78,11,0.68,16,0.88,5,0.58,26,-999,1.0,2,1,3,3.0,2.0,3.0,1.0,3.0,1.0,111
18,Practice,1222.21,P14,1295.11,1296.62,7.96,A,right,0.72,11,0.62,17,0.82,3,0.52,24,-999,2.0,3,2,1,-3.0,2.0,-3.0,2.0,-3.0,-1.0,0
18,Practice,1222.21,P15,1304.94,1306.45,9.11,B,right,0.78,7,0.68,14,0.88,5,0.58,26,-999,2.0,2,3,1,3.0,-2.0,3.0,-1.0,3.0,1.0,10
18,Practice,1222.21,P16,1315.9,1317.42,5.2,C,right,0.78,7,0.65,13,0.82,2,0.52,23,-999,2.0,2,1,3,3.0,-2.0,0.0,-2.0,-3.0,-2.0,1
18,Practice,1222.21,P17,1322.95,1324.46,16.31,C,left,0.72,10,0.65,13,0.82,5,0.52,26,-999,2.0,3,2,1,-3.0,1.0,0.0,-2.0,-3.0,1.0,110
18,Practice,1222.21,P18,1341.11,1342.62,6.36,B,left,0.78,7,0.68,13,0.88,2,0.58,23,-999,2.0,3,1,2,3.0,-2.0,3.0,-2.0,3.0,-2.0,10
18,Practice,1222.21,P19,1349.32,1350.84,20.39,A,right,0.78,11,0.62,15,0.85,4,0.55,25,-999,1.0,3,1,2,3.0,2.0,-3.0,0.0,0.0,0.0,110
18,Practice,1222.21,P20,1371.57,1373.08,5.43,B,right,0.72,7,0.65,14,0.88,4,0.58,25,-999,1.0,1,3,2,-3.0,-2.0,0.0,-1.0,3.0,0.0,11
18,Practice,1222.21,P21,1378.85,1380.36,6.3,B,left,0.78,9,0.65,16,0.85,2,0.55,23,-999,1.0,3,1,2,3.0,0.0,0.0,1.0,0.0,-2.0,0
18,Practice,1222.21,P22,1386.99,1388.51,14.44,B,right,0.72,9,0.62,15,0.85,2,0.55,23,-999,1.0,1,3,2,-3.0,0.0,-3.0,0.0,0.0,-2.0,10
18,Practice,1222.21,P23,1403.29,1404.8,6.89,B,left,0.72,7,0.65,13,0.88,3,0.58,24,-999,1.0,3,1,2,-3.0,-2.0,0.0,-2.0,3.0,-1.0,100
18,Practice,1222.21,P24,1412.04,1413.55,7.87,A,mid,0.78,7,0.65,13,0.82,5,0.52,26,-999,2.0,2,1,3,3.0,-2.0,0.0,-2.0,-3.0,1.0,10
18,Practice,1222.21,P25,1421.77,1423.28,6.7,A,mid,0.78,10,0.68,13,0.85,4,0.55,25,-999,1.0,2,3,1,3.0,1.0,3.0,-2.0,0.0,0.0,111
18,Estimation1,1584.46,E1,1584.53,1586.05,5.75,A,mid,0.75,11,0.65,15,0.85,-999,0.55,20,3,,2,1,3,,,,,,,11
18,Estimation1,1584.46,E2,1592.13,1593.64,4.51,C,mid,0.75,8,0.65,15,0.85,-999,0.55,20,1,2.0,1,3,2,,,,,,,101
18,Estimation1,1584.46,E3,1598.49,1600.01,6.72,B,left,0.75,8,0.65,15,0.85,-999,0.55,18,3,,3,1,2,,,,,,,100
18,Estimation1,1584.46,E4,1607.07,1608.59,3.85,B,right,0.75,10,0.65,15,0.85,-999,0.55,18,1,2.0,2,3,1,,,,,,,101
18,Estimation1,1584.46,E5,1612.79,1614.3,4.19,B,mid,0.75,10,0.65,15,0.85,-999,0.55,19,3,,1,2,3,,,,,,,1
18,Estimation1,1584.46,E6,1618.84,1620.35,5.78,C,right,0.75,11,0.65,15,0.85,-999,0.55,19,1,2.0,2,1,3,,,,,,,101
18,Estimation1,1584.46,E7,1626.47,1627.98,5.54,B,mid,0.75,11,0.65,15,0.85,-999,0.55,19,3,,1,2,3,,,,,,,100
18,Estimation1,1584.46,E8,1633.86,1635.38,6.76,B,right,0.75,11,0.65,15,0.85,6,0.55,19,1,2.0,2,3,1,,,,,,,100
18,Estimation1,1584.46,E9,1642.48,1643.99,5.6,C,left,0.75,11,0.65,15,0.85,6,0.55,19,2,1.0,3,2,1,,,,,,,100
18,Estimation1,1584.46,E10,1649.94,1651.46,3.15,B,right,0.75,11,0.65,15,0.85,4,0.55,19,1,2.0,1,3,2,,,,,,,0
18,Estimation1,1584.46,E11,1654.96,1656.47,2.4,A,left,0.75,11,0.65,15,0.85,4,0.55,19,2,1.0,1,2,3,,,,,,,101
18,Estimation1,1584.46,E12,1659.21,1660.72,5.81,B,left,0.75,11,0.65,15,0.85,5,0.55,19,1,2.0,2,1,3,,,,,,,110
18,Estimation1,1584.46,E13,1666.87,1668.39,3.04,A,mid,0.75,11,0.65,15,0.85,5,0.55,19,2,1.0,2,1,3,,,,,,,11
18,Estimation1,1584.46,E14,1671.77,1673.28,3.98,B,mid,0.75,11,0.65,15,0.85,6,0.55,19,1,2.0,1,2,3,,,,,,,100
18,Estimation1,1584.46,E15,1677.6,1679.12,15.21,A,mid,0.75,11,0.65,15,0.85,6,0.55,19,2,1.0,2,1,3,,,,,,,110
18,1,1697.86,1,1697.93,1699.44,8.69,A,mid,0.78,11,0.62,15,0.76,10,0.6,14,-999,32.0,2,1,3,3.0,0.0,-3.0,0.0,3.0,0.0,111
18,1,1697.86,2,1708.47,1709.99,7.42,A,left,0.78,11,0.65,14,0.82,5,0.52,18,-999,1.0,1,3,2,3.0,0.0,0.0,-1.0,-3.0,-1.0,110
18,1,1697.86,3,1717.75,1719.27,7.74,B,right,0.78,11,0.68,15,0.76,10,0.66,14,-999,31.0,1,3,2,3.0,0.0,3.0,0.0,0.0,0.0,111
18,1,1697.86,4,1727.35,1728.87,17.6,B,mid,0.72,10,0.65,15,0.88,5,0.58,18,-999,2.0,3,2,1,-3.0,-1.0,0.0,0.0,3.0,-1.0,111
18,1,1697.86,5,1746.81,1748.33,9.2,A,left,0.78,11,0.65,15,0.76,10,0.63,14,-999,32.0,1,3,2,3.0,0.0,0.0,0.0,0.0,0.0,101
18,1,1697.86,6,1757.86,1759.37,14.14,A,left,0.78,10,0.62,15,0.76,9,0.6,14,-999,32.0,1,2,3,3.0,-1.0,-3.0,0.0,-3.0,-1.0,101
18,1,1697.86,7,1773.85,1775.37,6.64,A,right,0.72,10,0.62,15,0.7,9,0.6,14,-999,32.0,3,2,1,-3.0,-1.0,-3.0,0.0,-3.0,-1.0,1
18,1,1697.86,8,1782.35,1783.87,6.28,A,left,0.78,10,0.68,15,0.85,5,0.55,18,-999,1.0,1,3,2,3.0,-1.0,3.0,0.0,0.0,-1.0,100
18,1,1697.86,9,1790.5,1792.01,16.09,C,left,0.31,32,0.38,26,0.85,11,-999.0,-999,-999,99.0,2,3,1,0.0,0.0,0.0,0.0,0.0,0.0,101
18,1,1697.86,10,1808.44,1809.96,5.09,B,mid,0.75,10,0.68,14,0.85,5,0.55,18,-999,2.0,3,2,1,0.0,-1.0,3.0,-1.0,0.0,-1.0,111
18,1,1697.86,11,1815.39,1816.9,5.55,C,mid,0.72,10,0.62,14,0.88,6,0.58,19,-999,2.0,1,3,2,-3.0,-1.0,-3.0,-1.0,3.0,0.0,101
18,1,1697.86,12,1822.79,1824.3,6.32,C,mid,0.72,10,0.68,14,0.85,6,0.55,19,-999,2.0,3,1,2,-3.0,-1.0,3.0,-1.0,0.0,0.0,0
18,1,1697.86,13,1830.97,1832.48,13.7,C,mid,0.32,31,0.48,20,0.85,11,-999.0,-999,-999,99.0,3,1,2,0.0,0.0,0.0,0.0,0.0,0.0,0
18,1,1697.86,14,1846.53,1848.04,10.45,B,left,0.75,10,0.65,14,0.73,9,0.63,13,-999,32.0,3,1,2,0.0,-1.0,0.0,-1.0,3.0,0.0,111
18,1,1697.86,15,1858.84,1860.36,9.37,A,right,0.75,10,0.68,14,0.73,9,0.66,13,-999,32.0,3,1,2,0.0,-1.0,3.0,-1.0,0.0,0.0,10
18,1,1697.86,16,1870.07,1871.59,18.59,A,right,0.78,10,0.62,15,0.76,9,0.6,14,-999,31.0,3,2,1,3.0,-1.0,-3.0,0.0,0.0,0.0,110
18,1,1697.86,17,1890.51,1892.03,16.7,B,left,0.75,11,0.65,15,0.85,6,0.55,19,-999,1.0,2,1,3,0.0,0.0,0.0,0.0,0.0,0.0,0
18,1,1697.86,18,1909.08,1910.59,9.75,B,left,0.72,11,0.68,15,0.82,5,0.52,18,-999,1.0,2,1,3,-3.0,0.0,3.0,0.0,-3.0,-1.0,11
18,1,1697.86,19,1920.67,1922.19,11.84,B,left,0.72,11,0.65,14,0.7,10,0.63,13,-999,32.0,2,1,3,-3.0,0.0,0.0,-1.0,3.0,0.0,101
18,1,1697.86,20,1934.37,1935.88,9.94,B,left,0.72,11,0.68,15,0.82,6,0.52,19,-999,2.0,2,1,3,-3.0,0.0,3.0,0.0,-3.0,0.0,1
18,1,1697.86,21,1946.16,1947.68,5.51,A,mid,0.75,11,0.62,15,0.88,5,0.58,18,-999,1.0,2,3,1,0.0,0.0,-3.0,0.0,3.0,-1.0,11
18,1,1697.86,22,1953.53,1955.04,13.21,A,left,0.72,11,0.65,15,0.7,10,0.63,14,-999,31.0,1,2,3,-3.0,0.0,0.0,0.0,-3.0,-1.0,100
18,1,1697.86,23,1968.59,1970.11,23.95,B,right,0.72,11,0.65,15,0.82,5,0.52,18,-999,2.0,1,3,2,-3.0,0.0,0.0,0.0,-3.0,-1.0,11
18,1,1697.86,24,1994.4,1995.91,21.71,C,right,0.75,11,0.62,14,0.88,6,0.58,19,-999,2.0,1,2,3,0.0,0.0,-3.0,-1.0,3.0,0.0,101
18,1,1697.86,25,2017.97,2019.49,16.67,B,mid,0.75,11,0.65,14,0.85,5,0.55,18,-999,2.0,1,2,3,0.0,0.0,0.0,-1.0,0.0,-1.0,111
18,1,1697.86,26,2036.5,2038.02,6.51,A,mid,0.75,11,0.65,15,0.82,5,0.52,18,-999,1.0,2,1,3,0.0,0.0,0.0,0.0,-3.0,-1.0,101
18,1,1697.86,27,2044.86,2046.38,10.7,A,mid,0.78,10,0.62,14,0.76,9,0.6,13,-999,32.0,2,3,1,3.0,-1.0,-3.0,-1.0,0.0,-1.0,100
18,1,1697.86,28,2057.43,2058.94,6.99,B,left,0.72,10,0.65,14,0.7,9,0.63,13,-999,31.0,2,1,3,-3.0,-1.0,0.0,-1.0,3.0,-1.0,0
18,1,1697.86,29,2066.27,2067.79,7.1,B,right,0.72,11,0.68,15,0.82,5,0.52,18,-999,1.0,2,3,1,-3.0,0.0,3.0,0.0,-3.0,-1.0,110
18,1,1697.86,30,2075.22,2076.74,10.27,B,mid,0.75,10,0.68,15,0.88,6,0.58,19,-999,1.0,1,2,3,0.0,-1.0,3.0,0.0,3.0,0.0,10
18,1,1697.86,31,2087.35,2088.87,14.71,B,right,0.72,11,0.62,15,0.7,10,0.6,14,-999,32.0,1,3,2,-3.0,0.0,-3.0,0.0,3.0,-1.0,100
18,1,1697.86,32,2103.91,2105.43,13.12,B,left,0.75,10,0.68,14,0.73,9,0.66,13,-999,31.0,3,1,2,0.0,-1.0,3.0,-1.0,0.0,-1.0,110
18,1,1697.86,33,2118.89,2120.41,11.95,A,mid,0.75,11,0.65,14,0.73,10,0.63,13,-999,31.0,2,3,1,0.0,0.0,0.0,-1.0,0.0,0.0,0
18,1,1697.86,34,2132.7,2134.22,7.14,A,mid,0.78,11,0.65,15,0.76,10,0.63,14,-999,32.0,2,1,3,3.0,0.0,0.0,0.0,-3.0,-1.0,111
18,1,1697.86,35,2141.7,2143.22,13.82,C,right,0.19,52,0.59,16,0.81,12,-999.0,-999,-999,99.0,1,2,3,0.0,0.0,0.0,0.0,0.0,0.0,100
18,1,1697.86,36,2157.38,2158.9,11.47,B,mid,0.78,10,0.68,15,0.88,6,0.58,19,-999,1.0,1,2,3,3.0,-1.0,3.0,0.0,3.0,0.0,110
18,1,1697.86,37,2170.71,2172.22,11.65,C,right,0.28,35,0.67,14,0.78,12,-999.0,-999,-999,99.0,1,2,3,0.0,0.0,0.0,0.0,0.0,0.0,11
18,1,1697.86,38,2227.62,2229.14,4.25,A,right,0.78,11,0.65,14,0.82,6,0.52,19,-999,1.0,3,1,2,3.0,0.0,0.0,-1.0,-3.0,0.0,110
18,1,1697.86,39,2233.74,2235.25,5.24,B,left,0.72,11,0.62,15,0.7,10,0.6,14,-999,32.0,2,1,3,-3.0,0.0,-3.0,0.0,0.0,0.0,110
18,1,1697.86,40,2240.83,2242.35,11.92,B,right,0.75,10,0.62,15,0.88,6,0.58,19,-999,1.0,1,3,2,0.0,-1.0,-3.0,0.0,3.0,0.0,1
18,1,1697.86,41,2254.61,2256.13,10.08,A,left,0.75,10,0.65,15,0.73,9,0.63,14,-999,31.0,1,2,3,0.0,-1.0,0.0,0.0,3.0,-1.0,110
18,1,1697.86,42,2266.54,2268.06,7.42,B,left,0.75,11,0.65,15,0.73,10,0.63,14,-999,31.0,3,1,2,0.0,0.0,0.0,0.0,0.0,0.0,10
18,1,1697.86,43,2275.82,2277.34,8.08,A,right,0.78,11,0.68,15,0.82,6,0.52,19,-999,1.0,3,2,1,3.0,0.0,3.0,0.0,-3.0,0.0,1
18,1,1697.86,44,2285.77,2287.29,9.98,C,right,0.24,41,0.37,27,0.76,13,-999.0,-999,-999,99.0,2,1,3,0.0,0.0,0.0,0.0,0.0,0.0,10
18,1,1697.86,45,2297.62,2299.13,7.86,C,left,0.72,10,0.65,15,0.85,6,0.55,19,-999,2.0,2,3,1,-3.0,-1.0,0.0,0.0,0.0,0.0,11
18,1,1697.86,46,2307.33,2308.85,7.77,C,right,0.16,62,0.46,21,0.87,11,-999.0,-999,-999,99.0,1,2,3,0.0,0.0,0.0,0.0,0.0,0.0,10
18,1,1697.86,47,2316.96,2318.48,11.39,C,right,0.72,11,0.62,14,0.85,6,0.55,19,-999,2.0,1,2,3,-3.0,0.0,-3.0,-1.0,0.0,0.0,11
18,1,1697.86,48,2330.21,2331.72,7.93,C,left,0.78,11,0.62,14,0.85,6,0.55,19,-999,2.0,3,2,1,3.0,0.0,-3.0,-1.0,0.0,0.0,0
18,1,1697.86,49,2339.99,2341.5,19.03,C,right,0.75,10,0.62,15,0.73,9,0.6,14,-999,32.0,2,1,3,0.0,-1.0,-3.0,0.0,-3.0,0.0,1
18,1,1697.86,50,2360.88,2362.4,12.03,A,mid,0.75,11,0.65,15,0.73,10,0.63,14,-999,31.0,2,1,3,0.0,0.0,0.0,0.0,0.0,-1.0,10
18,1,1697.86,51,2374.78,2376.29,19.25,B,mid,0.78,10,0.68,14,0.76,9,0.66,13,-999,32.0,1,2,3,3.0,-1.0,3.0,-1.0,3.0,-1.0,0
18,1,1697.86,52,2395.88,2397.4,6.04,A,mid,0.78,11,0.62,14,0.76,10,0.6,13,-999,31.0,2,1,3,3.0,0.0,-3.0,-1.0,-3.0,0.0,100
18,1,1697.86,53,2403.78,2405.3,9.84,B,mid,0.78,11,0.65,14,0.82,5,0.52,18,-999,2.0,1,2,3,3.0,0.0,0.0,-1.0,-3.0,-1.0,0
18,1,1697.86,54,2415.48,2417.0,8.52,C,left,0.19,52,0.56,17,0.8,12,-999.0,-999,-999,99.0,2,3,1,0.0,0.0,0.0,0.0,0.0,0.0,10
18,1,1697.86,55,2425.86,2427.38,14.03,A,left,0.78,10,0.62,15,0.85,5,0.55,18,-999,1.0,1,2,3,3.0,-1.0,-3.0,0.0,0.0,-1.0,101
18,1,1697.86,56,2441.75,2443.27,8.2,B,right,0.72,10,0.65,15,0.7,9,0.63,14,-999,31.0,1,3,2,-3.0,-1.0,0.0,0.0,3.0,-1.0,111
18,1,1697.86,57,2451.82,2453.33,4.38,B,left,0.72,10,0.65,15,0.7,9,0.63,14,-999,31.0,2,1,3,-3.0,-1.0,0.0,0.0,3.0,-1.0,100
18,1,1697.86,58,2458.05,2459.56,5.34,C,mid,0.72,11,0.68,14,0.88,6,0.58,19,-999,2.0,3,1,2,-3.0,0.0,3.0,-1.0,3.0,0.0,110
18,1,1697.86,59,2465.25,2466.76,10.46,C,left,0.27,37,0.61,16,0.89,11,-999.0,-999,-999,99.0,3,2,1,0.0,0.0,0.0,0.0,0.0,0.0,1
18,1,1697.86,60,2477.56,2479.07,8.79,A,right,0.78,11,0.68,15,0.88,5,0.58,18,-999,1.0,3,1,2,3.0,0.0,3.0,0.0,3.0,-1.0,111
18,1,1697.86,61,2488.21,2489.72,7.9,B,mid,0.72,11,0.68,14,0.7,10,0.66,13,-999,32.0,3,2,1,-3.0,0.0,3.0,-1.0,0.0,-1.0,0
18,1,1697.86,62,2497.95,2499.47,5.58,C,right,0.27,37,0.47,21,0.86,11,-999.0,-999,-999,99.0,1,2,3,0.0,0.0,0.0,0.0,0.0,0.0,0
18,1,1697.86,63,2505.38,2506.9,5.87,C,left,0.29,34,0.42,23,0.72,13,-999.0,-999,-999,99.0,2,3,1,0.0,0.0,0.0,0.0,0.0,0.0,110
18,1,1697.86,64,2513.11,2514.63,7.97,B,left,0.72,10,0.68,14,0.7,9,0.66,13,-999,31.0,2,1,3,-3.0,-1.0,3.0,-1.0,-3.0,0.0,101
18,1,1697.86,65,2522.94,2524.46,5.41,C,right,0.72,10,0.68,15,0.88,6,0.58,19,-999,2.0,2,1,3,-3.0,-1.0,3.0,0.0,3.0,0.0,111
18,1,1697.86,66,2530.21,2531.72,10.24,A,left,0.72,11,0.62,14,0.7,10,0.6,13,-999,32.0,1,3,2,-3.0,0.0,-3.0,-1.0,0.0,0.0,10
18,1,1697.86,67,2542.3,2543.82,13.08,B,mid,0.72,11,0.62,15,0.7,10,0.6,14,-999,31.0,1,2,3,-3.0,0.0,-3.0,0.0,0.0,-1.0,111
18,1,1697.86,68,2557.23,2558.75,18.03,A,right,0.75,11,0.65,14,0.73,10,0.63,13,-999,31.0,3,1,2,0.0,0.0,0.0,-1.0,-3.0,-1.0,111
18,1,1697.86,69,2577.13,2578.64,13.0,B,mid,0.78,10,0.68,15,0.76,9,0.66,14,-999,31.0,3,2,1,3.0,-1.0,3.0,0.0,0.0,0.0,100
18,1,1697.86,70,2591.99,2593.5,11.16,C,mid,0.75,10,0.62,15,0.88,5,0.58,18,-999,2.0,3,1,2,0.0,-1.0,-3.0,0.0,3.0,-1.0,0
18,1,1697.86,71,2605.0,2606.52,6.76,A,left,0.78,11,0.62,14,0.85,5,0.55,18,-999,1.0,1,3,2,3.0,0.0,-3.0,-1.0,0.0,-1.0,110
18,1,1697.86,72,2613.61,2615.13,8.87,B,left,0.72,11,0.65,15,0.82,5,0.52,18,-999,1.0,3,1,2,-3.0,0.0,0.0,0.0,-3.0,-1.0,110
18,1,1697.86,73,2624.34,2625.86,6.97,C,right,0.32,31,0.6,16,0.78,12,-999.0,-999,-999,99.0,2,1,3,0.0,0.0,0.0,0.0,0.0,0.0,110
18,1,1697.86,74,2633.18,2634.69,32.62,A,right,0.78,10,0.65,15,0.76,9,0.63,14,-999,32.0,3,2,1,3.0,-1.0,0.0,0.0,-3.0,-1.0,110
18,1,1697.86,75,2667.65,2669.16,3.24,C,left,0.72,11,0.62,14,0.85,6,0.55,19,-999,2.0,3,2,1,-3.0,0.0,-3.0,-1.0,0.0,0.0,100
18,Estimation2,2742.24,E1,2742.31,2743.82,5.91,B,left,0.75,11,0.65,15,0.85,-999,0.55,20,3,,2,1,3,,,,,,,110
18,Estimation2,2742.24,E2,2750.07,2751.59,4.23,C,right,0.75,12,0.65,15,0.85,-999,0.55,20,1,2.0,1,2,3,,,,,,,0
18,Estimation2,2742.24,E3,2756.15,2757.67,11.84,A,right,0.75,12,0.65,15,0.85,-999,0.55,18,3,,3,1,2,,,,,,,1
18,Estimation2,2742.24,E4,2769.85,2771.36,7.13,B,right,0.75,12,0.65,15,0.85,6,0.55,18,1,2.0,1,3,2,,,,,,,1
18,Estimation2,2742.24,E5,2778.85,2780.36,2.35,A,left,0.75,12,0.65,15,0.85,6,0.55,19,2,1.0,1,3,2,,,,,,,0
18,Estimation2,2742.24,E6,2783.06,2784.58,2.55,C,right,0.75,12,0.65,15,0.85,8,0.55,19,1,2.0,1,2,3,,,,,,,0
18,Estimation2,2742.24,E7,2787.48,2788.99,4.81,C,mid,0.75,12,0.65,15,0.85,8,0.55,19,2,1.0,3,1,2,,,,,,,101
18,Estimation2,2742.24,E8,2794.14,2795.66,5.37,C,mid,0.75,12,0.65,15,0.85,7,0.55,19,1,2.0,3,1,2,,,,,,,10
18,Estimation2,2742.24,E9,2801.37,2802.89,6.77,A,right,0.75,12,0.65,15,0.85,7,0.55,19,2,1.0,3,2,1,,,,,,,110
18,Estimation2,2742.24,E10,2810.0,2811.52,4.55,C,mid,0.75,12,0.65,15,0.85,8,0.55,19,1,2.0,3,1,2,,,,,,,110
18,Estimation2,2742.24,E11,2816.4,2817.92,10.71,C,right,0.75,12,0.65,15,0.85,8,0.55,19,2,1.0,1,2,3,,,,,,,101
18,2,2834.49,1,2834.56,2836.08,9.99,A,right,0.78,12,0.68,15,0.76,11,0.66,14,-999,31.0,3,1,2,3.0,0.0,3.0,0.0,0.0,0.0,11
18,2,2834.49,2,2846.41,2847.92,10.11,C,right,0.72,11,0.68,14,0.85,8,0.55,19,-999,2.0,1,2,3,-3.0,-1.0,3.0,-1.0,0.0,0.0,101
18,2,2834.49,3,2858.37,2859.89,6.67,A,left,0.72,11,0.65,15,0.7,10,0.63,14,-999,31.0,1,3,2,-3.0,-1.0,0.0,0.0,3.0,-1.0,111
18,2,2834.49,4,2866.9,2868.42,5.06,C,right,0.24,41,0.37,27,0.76,13,-999.0,-999,-999,99.0,2,1,3,0.0,0.0,0.0,0.0,0.0,0.0,11
18,2,2834.49,5,2873.81,2875.33,9.37,A,mid,0.78,12,0.65,15,0.76,11,0.63,14,-999,32.0,2,1,3,3.0,0.0,0.0,0.0,0.0,0.0,100
18,2,2834.49,6,2885.04,2886.56,7.13,B,mid,0.72,12,0.68,15,0.82,7,0.52,18,-999,1.0,3,2,1,-3.0,0.0,3.0,0.0,-3.0,-1.0,0
18,2,2834.49,7,2894.03,2895.54,3.61,A,mid,0.78,11,0.62,15,0.76,10,0.6,14,-999,31.0,2,3,1,3.0,-1.0,-3.0,0.0,0.0,0.0,111
18,2,2834.49,8,2899.49,2901.01,8.44,B,mid,0.72,12,0.62,15,0.7,11,0.6,14,-999,32.0,3,2,1,-3.0,0.0,-3.0,0.0,0.0,0.0,0
18,2,2834.49,9,2909.79,2911.3,12.86,A,mid,0.78,12,0.68,15,0.88,7,0.58,18,-999,1.0,2,1,3,3.0,0.0,3.0,0.0,3.0,-1.0,1
18,2,2834.49,10,2924.5,2926.01,9.24,B,mid,0.72,12,0.68,15,0.82,7,0.52,18,-999,1.0,3,2,1,-3.0,0.0,3.0,0.0,-3.0,-1.0,10
18,2,2834.49,11,2935.6,2937.11,7.95,A,right,0.75,11,0.65,15,0.73,10,0.63,14,-999,31.0,3,1,2,0.0,-1.0,0.0,0.0,3.0,-1.0,110
18,2,2834.49,12,2945.41,2946.92,5.35,C,mid,0.72,12,0.62,14,0.85,8,0.55,19,-999,2.0,3,1,2,-3.0,0.0,-3.0,-1.0,0.0,0.0,0
18,2,2834.49,13,2952.62,2954.14,9.73,A,mid,0.75,12,0.65,15,0.82,7,0.52,18,-999,1.0,2,1,3,0.0,0.0,0.0,0.0,-3.0,-1.0,110
18,2,2834.49,14,2964.22,2965.73,8.72,A,right,0.72,12,0.65,15,0.7,11,0.63,14,-999,31.0,3,1,2,-3.0,0.0,0.0,0.0,-3.0,-1.0,110
18,2,2834.49,15,2974.8,2976.32,4.26,B,right,0.72,11,0.68,14,0.7,10,0.66,13,-999,31.0,1,3,2,-3.0,-1.0,3.0,-1.0,-3.0,0.0,0
18,2,2834.49,16,2980.91,2982.43,11.36,A,right,0.75,12,0.65,15,0.73,11,0.63,14,-999,31.0,3,2,1,0.0,0.0,0.0,0.0,0.0,-1.0,1
18,2,2834.49,17,2994.13,2995.64,10.48,B,right,0.72,12,0.68,14,0.7,11,0.66,13,-999,32.0,2,3,1,-3.0,0.0,3.0,-1.0,0.0,-1.0,11
18,2,2834.49,18,3006.46,3007.97,11.59,B,right,0.75,11,0.68,14,0.73,10,0.66,13,-999,32.0,1,3,2,0.0,-1.0,3.0,-1.0,0.0,0.0,10
18,2,2834.49,19,3019.9,3021.42,6.88,A,right,0.78,11,0.68,15,0.85,7,0.55,18,-999,1.0,3,2,1,3.0,-1.0,3.0,0.0,0.0,-1.0,10
18,2,2834.49,20,3028.63,3030.15,5.11,C,mid,0.27,37,0.47,21,0.86,11,-999.0,-999,-999,99.0,3,1,2,0.0,0.0,0.0,0.0,0.0,0.0,11
18,2,2834.49,21,3035.6,3037.11,9.86,A,mid,0.72,12,0.65,14,0.7,11,0.63,13,-999,32.0,2,3,1,-3.0,0.0,0.0,-1.0,3.0,0.0,101
18,2,2834.49,22,3047.31,3048.83,4.26,C,left,0.16,62,0.46,21,0.87,11,-999.0,-999,-999,99.0,3,2,1,0.0,0.0,0.0,0.0,0.0,0.0,10
18,2,2834.49,23,3053.42,3054.94,10.65,A,right,0.78,11,0.62,15,0.76,10,0.6,14,-999,32.0,3,2,1,3.0,-1.0,-3.0,0.0,-3.0,-1.0,111
18,2,2834.49,24,3065.94,3067.45,4.23,C,mid,0.72,11,0.68,15,0.88,8,0.58,19,-999,2.0,3,1,2,-3.0,-1.0,3.0,0.0,3.0,0.0,10
18,2,2834.49,25,3072.02,3073.53,10.92,A,mid,0.72,12,0.62,14,0.7,11,0.6,13,-999,32.0,2,3,1,-3.0,0.0,-3.0,-1.0,0.0,0.0,100
18,2,2834.49,26,3084.8,3086.31,14.29,A,left,0.75,11,0.62,15,0.73,10,0.6,14,-999,32.0,1,2,3,0.0,-1.0,-3.0,0.0,-3.0,0.0,11
18,2,2834.49,27,3100.94,3102.46,8.02,A,mid,0.75,11,0.65,14,0.73,10,0.63,13,-999,32.0,2,3,1,0.0,-1.0,0.0,-1.0,3.0,0.0,1
18,2,2834.49,28,3110.82,3112.34,3.66,A,left,0.78,12,0.62,14,0.85,7,0.55,18,-999,1.0,1,3,2,3.0,0.0,-3.0,-1.0,0.0,-1.0,0
18,2,2834.49,29,3116.34,3117.85,5.5,A,right,0.78,11,0.65,15,0.76,10,0.63,14,-999,32.0,3,1,2,3.0,-1.0,0.0,0.0,-3.0,-1.0,100
18,2,2834.49,30,3123.68,3125.2,6.38,C,right,0.19,52,0.59,16,0.81,12,-999.0,-999,-999,99.0,1,2,3,0.0,0.0,0.0,0.0,0.0,0.0,0
18,2,2834.49,31,3131.91,3133.43,8.73,C,right,0.75,11,0.62,15,0.88,7,0.58,18,-999,2.0,2,1,3,0.0,-1.0,-3.0,0.0,3.0,-1.0,10
18,2,2834.49,32,3142.5,3144.01,19.32,A,left,0.78,12,0.62,14,0.85,8,0.55,19,-999,2.0,1,3,2,3.0,0.0,-3.0,-1.0,0.0,0.0,111
18,2,2834.49,33,3163.67,3165.19,6.27,A,left,0.78,12,0.65,14,0.82,8,0.52,19,-999,1.0,1,2,3,3.0,0.0,0.0,-1.0,-3.0,0.0,10
18,2,2834.49,34,3171.8,3173.32,9.29,A,right,0.78,12,0.65,14,0.82,7,0.52,18,-999,1.0,3,2,1,3.0,0.0,0.0,-1.0,-3.0,-1.0,100
18,2,2834.49,35,3182.95,3184.46,3.84,C,right,0.29,34,0.42,23,0.72,13,-999.0,-999,-999,99.0,1,2,3,0.0,0.0,0.0,0.0,0.0,0.0,101
18,2,2834.49,36,3188.65,3190.16,7.63,A,left,0.78,12,0.62,14,0.76,11,0.6,13,-999,31.0,1,3,2,3.0,0.0,-3.0,-1.0,-3.0,0.0,11
18,2,2834.49,37,3198.14,3199.66,7.91,A,left,0.72,12,0.62,15,0.7,11,0.6,14,-999,32.0,1,3,2,-3.0,0.0,-3.0,0.0,3.0,-1.0,11
18,2,2834.49,38,3224.12,3225.63,3.7,A,right,0.78,12,0.62,15,0.76,11,0.6,14,-999,32.0,3,1,2,3.0,0.0,-3.0,0.0,3.0,0.0,111
18,2,2834.49,39,3229.67,3231.18,22.85,B,right,0.72,12,0.65,15,0.82,7,0.52,18,-999,2.0,1,3,2,-3.0,0.0,0.0,0.0,-3.0,-1.0,111
18,2,2834.49,40,3254.38,3255.89,10.61,C,right,0.32,31,0.6,16,0.78,12,-999.0,-999,-999,99.0,2,1,3,0.0,0.0,0.0,0.0,0.0,0.0,10
18,2,2834.49,41,3266.84,3268.35,6.7,C,right,0.75,11,0.62,15,0.88,8,0.58,19,-999,1.0,1,2,3,0.0,-1.0,-3.0,0.0,3.0,0.0,0
18,2,2834.49,42,3275.39,3276.9,17.19,A,right,0.72,11,0.65,15,0.7,10,0.63,14,-999,31.0,3,1,2,-3.0,-1.0,0.0,0.0,3.0,-1.0,0
18,2,2834.49,43,3294.43,3295.95,5.36,C,right,0.72,11,0.62,14,0.88,8,0.58,19,-999,2.0,1,2,3,-3.0,-1.0,-3.0,-1.0,3.0,0.0,100
18,2,2834.49,44,3301.64,3303.16,12.82,B,left,0.75,11,0.68,15,0.88,8,0.58,19,-999,1.0,2,1,3,0.0,-1.0,3.0,0.0,3.0,0.0,101
18,2,2834.49,45,3316.32,3317.84,11.88,A,left,0.75,12,0.65,14,0.85,7,0.55,18,-999,2.0,1,2,3,0.0,0.0,0.0,-1.0,0.0,-1.0,100
18,2,2834.49,46,3330.05,3331.57,18.17,C,left,0.72,11,0.65,15,0.85,8,0.55,19,-999,2.0,2,3,1,-3.0,-1.0,0.0,0.0,0.0,0.0,11
18,2,2834.49,47,3350.08,3351.59,11.14,B,mid,0.75,11,0.68,14,0.85,7,0.55,18,-999,2.0,3,2,1,0.0,-1.0,3.0,-1.0,0.0,-1.0,11
18,2,2834.49,48,3363.07,3364.59,6.18,A,mid,0.78,11,0.62,15,0.85,7,0.55,18,-999,1.0,2,1,3,3.0,-1.0,-3.0,0.0,0.0,-1.0,10
18,2,2834.49,49,3371.1,3372.62,17.51,A,left,0.78,11,0.68,15,0.76,10,0.66,14,-999,31.0,1,3,2,3.0,-1.0,3.0,0.0,0.0,0.0,10
18,2,2834.49,50,3390.47,3391.98,4.92,A,mid,0.78,11,0.62,14,0.76,10,0.6,13,-999,32.0,2,1,3,3.0,-1.0,-3.0,-1.0,0.0,-1.0,110
18,2,2834.49,51,3397.25,3398.76,4.1,C,mid,0.31,32,0.38,26,0.85,11,-999.0,-999,-999,99.0,1,3,2,0.0,0.0,0.0,0.0,0.0,0.0,0
18,2,2834.49,52,3403.21,3404.73,6.67,A,left,0.78,11,0.68,15,0.88,8,0.58,19,-999,1.0,1,2,3,3.0,-1.0,3.0,0.0,3.0,0.0,110
18,2,2834.49,53,3411.74,3413.26,11.03,A,mid,0.75,11,0.68,14,0.73,10,0.66,13,-999,31.0,2,3,1,0.0,-1.0,3.0,-1.0,0.0,-1.0,111
18,2,2834.49,54,3424.62,3426.14,9.4,C,right,0.19,52,0.56,17,0.8,12,-999.0,-999,-999,99.0,2,1,3,0.0,0.0,0.0,0.0,0.0,0.0,101
18,2,2834.49,55,3435.88,3437.4,6.15,A,right,0.75,12,0.65,15,0.73,11,0.63,14,-999,31.0,3,2,1,0.0,0.0,0.0,0.0,0.0,0.0,100
18,2,2834.49,56,3443.9,3445.41,14.04,C,right,0.75,12,0.62,14,0.88,8,0.58,19,-999,2.0,1,2,3,0.0,0.0,-3.0,-1.0,3.0,0.0,111
18,2,2834.49,57,3459.79,3461.31,6.08,A,left,0.75,12,0.65,14,0.73,11,0.63,13,-999,31.0,1,2,3,0.0,0.0,0.0,-1.0,0.0,0.0,1
18,2,2834.49,58,3467.74,3469.26,2.63,A,right,0.78,12,0.65,14,0.82,7,0.52,18,-999,2.0,3,2,1,3.0,0.0,0.0,-1.0,-3.0,-1.0,0
18,2,2834.49,59,3472.22,3473.74,8.14,C,left,0.27,37,0.61,16,0.89,11,-999.0,-999,-999,99.0,2,3,1,0.0,0.0,0.0,0.0,0.0,0.0,10
18,2,2834.49,60,3482.22,3483.73,6.98,A,right,0.78,12,0.68,15,0.82,8,0.52,19,-999,1.0,3,1,2,3.0,0.0,3.0,0.0,-3.0,0.0,111
18,2,2834.49,61,3491.05,3492.57,7.86,A,right,0.72,12,0.62,15,0.7,11,0.6,14,-999,31.0,3,2,1,-3.0,0.0,-3.0,0.0,0.0,-1.0,110
18,2,2834.49,62,3500.76,3502.28,2.44,A,left,0.78,12,0.65,15,0.76,11,0.63,14,-999,32.0,1,2,3,3.0,0.0,0.0,0.0,-3.0,-1.0,100
18,2,2834.49,63,3505.06,3506.58,2.65,C,right,0.28,35,0.67,14,0.78,12,-999.0,-999,-999,99.0,1,2,3,0.0,0.0,0.0,0.0,0.0,0.0,0
18,2,2834.49,64,3509.56,3511.08,6.19,A,left,0.72,11,0.65,14,0.7,10,0.63,13,-999,31.0,1,2,3,-3.0,-1.0,0.0,-1.0,3.0,-1.0,10
18,2,2834.49,65,3517.61,3519.12,7.63,C,mid,0.72,12,0.62,14,0.85,8,0.55,19,-999,2.0,3,1,2,-3.0,0.0,-3.0,-1.0,0.0,0.0,0
18,2,2834.49,66,3527.09,3528.6,8.48,B,right,0.72,12,0.68,15,0.82,8,0.52,19,-999,2.0,2,3,1,-3.0,0.0,3.0,0.0,-3.0,0.0,110
18,2,2834.49,67,3537.42,3538.93,4.63,A,right,0.75,12,0.65,14,0.73,11,0.63,13,-999,31.0,3,2,1,0.0,0.0,0.0,-1.0,-3.0,-1.0,10
18,2,2834.49,68,3543.92,3545.43,6.14,A,right,0.75,12,0.62,15,0.88,7,0.58,18,-999,1.0,3,2,1,0.0,0.0,-3.0,0.0,3.0,-1.0,110
18,2,2834.49,69,3551.91,3553.43,6.59,A,right,0.72,12,0.65,15,0.82,7,0.52,18,-999,1.0,3,1,2,-3.0,0.0,0.0,0.0,-3.0,-1.0,10
18,2,2834.49,70,3560.36,3561.88,7.46,C,right,0.72,12,0.68,14,0.88,8,0.58,19,-999,2.0,2,1,3,-3.0,0.0,3.0,-1.0,3.0,0.0,1
18,2,2834.49,71,3569.67,3571.19,3.24,A,right,0.78,11,0.68,14,0.76,10,0.66,13,-999,32.0,3,2,1,3.0,-1.0,3.0,-1.0,3.0,-1.0,110
18,2,2834.49,72,3574.77,3576.29,13.95,B,right,0.72,11,0.62,15,0.7,10,0.6,14,-999,32.0,1,3,2,-3.0,-1.0,-3.0,0.0,-3.0,-1.0,110
18,2,2834.49,73,3590.63,3592.15,7.95,C,left,0.72,11,0.65,15,0.88,7,0.58,18,-999,2.0,3,2,1,-3.0,-1.0,0.0,0.0,3.0,-1.0,110
18,2,2834.49,74,3600.43,3601.95,3.88,A,right,0.75,12,0.65,15,0.85,8,0.55,19,-999,1.0,3,2,1,0.0,0.0,0.0,0.0,0.0,0.0,11
18,2,2834.49,75,3606.18,3607.69,3.69,C,mid,0.32,31,0.48,20,0.85,11,-999.0,-999,-999,99.0,1,3,2,0.0,0.0,0.0,0.0,0.0,0.0,111
18,Estimation3,3723.74,E1,3723.79,3725.31,5.69,A,right,0.75,11,0.65,15,0.85,-999,0.55,20,3,,3,1,2,,,,,,,100
18,Estimation3,3723.74,E2,3731.34,3732.85,3.56,C,left,0.75,8,0.65,15,0.85,-999,0.55,20,1,2.0,3,2,1,,,,,,,11
18,Estimation3,3723.74,E3,3736.77,3738.29,2.53,B,mid,0.75,8,0.65,15,0.85,-999,0.55,18,3,,1,2,3,,,,,,,110
18,Estimation3,3723.74,E4,3741.15,3742.67,3.59,B,mid,0.75,10,0.65,15,0.85,-999,0.55,18,1,2.0,1,2,3,,,,,,,0
18,Estimation3,3723.74,E5,3746.6,3748.12,2.56,A,right,0.75,10,0.65,15,0.85,-999,0.55,19,3,,3,2,1,,,,,,,111
18,Estimation3,3723.74,E6,3751.02,3752.53,3.39,C,mid,0.75,9,0.65,15,0.85,-999,0.55,19,1,2.0,3,1,2,,,,,,,101
18,Estimation3,3723.74,E7,3756.26,3757.78,3.98,B,mid,0.75,9,0.65,15,0.85,-999,0.55,19,3,,1,2,3,,,,,,,11
18,Estimation3,3723.74,E8,3762.1,3763.61,6.74,B,mid,0.75,10,0.65,15,0.85,-999,0.55,19,1,2.0,3,2,1,,,,,,,0
18,Estimation3,3723.74,E9,3770.69,3772.21,5.8,B,right,0.75,10,0.65,15,0.85,-999,0.55,19,3,,1,3,2,,,,,,,0
18,Estimation3,3723.74,E10,3778.34,3779.86,7.74,C,left,0.75,10,0.65,15,0.85,5,0.55,19,1,2.0,2,3,1,,,,,,,10
18,Estimation3,3723.74,E11,3787.94,3789.45,4.1,A,mid,0.75,10,0.65,15,0.85,5,0.55,19,2,1.0,2,1,3,,,,,,,11
18,Estimation3,3723.74,E12,3793.9,3795.42,8.62,B,right,0.75,10,0.65,15,0.85,7,0.55,19,1,2.0,1,3,2,,,,,,,100
18,Estimation3,3723.74,E13,3804.38,3805.9,3.11,A,right,0.75,10,0.65,15,0.85,7,0.55,19,2,1.0,3,2,1,,,,,,,101
18,Estimation3,3723.74,E14,3809.35,3810.86,5.03,B,mid,0.75,10,0.65,15,0.85,8,0.55,19,1,2.0,1,2,3,,,,,,,101
18,Estimation3,3723.74,E15,3816.23,3817.74,1.91,A,right,0.75,10,0.65,15,0.85,8,0.55,19,2,1.0,3,2,1,,,,,,,10
18,3,3822.08,1,3822.14,3823.66,5.91,C,right,0.16,62,0.46,21,0.87,11,-999.0,-999,-999,99.0,1,2,3,0.0,0.0,0.0,0.0,0.0,0.0,11
18,3,3822.08,2,3829.91,3831.42,6.94,C,mid,0.19,52,0.56,17,0.8,12,-999.0,-999,-999,99.0,3,1,2,0.0,0.0,0.0,0.0,0.0,0.0,111
18,3,3822.08,3,3838.7,3840.22,6.26,C,mid,0.72,10,0.62,14,0.85,8,0.55,19,-999,2.0,1,3,2,-3.0,0.0,-3.0,-1.0,0.0,0.0,1
18,3,3822.08,4,3846.82,3848.33,2.7,A,right,0.78,10,0.62,14,0.85,7,0.55,18,-999,1.0,3,1,2,3.0,0.0,-3.0,-1.0,0.0,-1.0,10
18,3,3822.08,5,3851.38,3852.9,7.14,A,left,0.75,10,0.62,15,0.88,7,0.58,18,-999,1.0,1,2,3,0.0,0.0,-3.0,0.0,3.0,-1.0,11
18,3,3822.08,6,3860.38,3861.9,3.39,A,left,0.78,10,0.68,15,0.88,7,0.58,18,-999,1.0,1,3,2,3.0,0.0,3.0,0.0,3.0,-1.0,10
18,3,3822.08,7,3865.63,3867.15,3.78,C,mid,0.29,34,0.42,23,0.72,13,-999.0,-999,-999,99.0,3,1,2,0.0,0.0,0.0,0.0,0.0,0.0,1
18,3,3822.08,8,3871.26,3872.78,4.5,A,mid,0.78,10,0.62,14,0.85,8,0.55,19,-999,2.0,2,3,1,3.0,0.0,-3.0,-1.0,0.0,0.0,101
18,3,3822.08,9,3877.63,3879.14,5.33,B,mid,0.78,9,0.65,15,0.76,8,0.63,14,-999,32.0,3,2,1,3.0,-1.0,0.0,0.0,-3.0,-1.0,110
18,3,3822.08,10,3884.81,3886.32,4.1,B,mid,0.72,10,0.65,15,0.82,7,0.52,18,-999,1.0,3,2,1,-3.0,0.0,0.0,0.0,-3.0,-1.0,111
18,3,3822.08,11,3890.75,3892.27,11.95,B,mid,0.72,10,0.68,14,0.88,8,0.58,19,-999,2.0,1,2,3,-3.0,0.0,3.0,-1.0,3.0,0.0,1
18,3,3822.08,12,3904.57,3906.08,3.37,B,mid,0.78,9,0.68,15,0.88,8,0.58,19,-999,1.0,1,2,3,3.0,-1.0,3.0,0.0,3.0,0.0,0
18,3,3822.08,13,3909.8,3911.31,3.07,A,mid,0.75,10,0.65,15,0.73,9,0.63,14,-999,31.0,2,3,1,0.0,0.0,0.0,0.0,0.0,0.0,111
18,3,3822.08,14,3914.73,3916.25,3.7,B,right,0.75,9,0.62,15,0.73,8,0.6,14,-999,32.0,1,3,2,0.0,-1.0,-3.0,0.0,-3.0,0.0,11
18,3,3822.08,15,3920.29,3921.81,4.86,B,left,0.72,10,0.62,15,0.7,9,0.6,14,-999,32.0,2,1,3,-3.0,0.0,-3.0,0.0,3.0,-1.0,11
18,3,3822.08,16,3927.01,3928.53,2.21,C,right,0.32,31,0.6,16,0.78,12,-999.0,-999,-999,99.0,1,2,3,0.0,0.0,0.0,0.0,0.0,0.0,110
18,3,3822.08,17,3931.09,3932.61,5.09,B,left,0.75,9,0.68,15,0.88,8,0.58,19,-999,1.0,3,1,2,0.0,-1.0,3.0,0.0,3.0,0.0,10
18,3,3822.08,18,3938.04,3939.55,6.7,A,mid,0.78,10,0.65,14,0.82,7,0.52,18,-999,1.0,2,1,3,3.0,0.0,0.0,-1.0,-3.0,-1.0,100
18,3,3822.08,19,3946.6,3948.12,6.4,C,right,0.72,9,0.62,14,0.88,8,0.58,19,-999,2.0,1,2,3,-3.0,-1.0,-3.0,-1.0,3.0,0.0,11
18,3,3822.08,20,3954.85,3956.37,1.74,C,mid,0.27,37,0.61,16,0.89,11,-999.0,-999,-999,99.0,1,3,2,0.0,0.0,0.0,0.0,0.0,0.0,111
18,3,3822.08,21,3958.45,3959.97,3.38,C,left,0.19,52,0.59,16,0.81,12,-999.0,-999,-999,99.0,2,3,1,0.0,0.0,0.0,0.0,0.0,0.0,11
18,3,3822.08,22,3963.68,3965.2,3.64,C,left,0.32,31,0.48,20,0.85,11,-999.0,-999,-999,99.0,2,3,1,0.0,0.0,0.0,0.0,0.0,0.0,10
18,3,3822.08,23,3969.18,3970.69,3.1,A,right,0.75,10,0.65,14,0.73,9,0.63,13,-999,31.0,3,2,1,0.0,0.0,0.0,-1.0,0.0,0.0,101
18,3,3822.08,24,3974.14,3975.66,5.2,C,left,0.28,35,0.67,14,0.78,12,-999.0,-999,-999,99.0,3,2,1,0.0,0.0,0.0,0.0,0.0,0.0,111
18,3,3822.08,25,3981.19,3982.71,3.39,A,right,0.78,10,0.65,15,0.76,9,0.63,14,-999,32.0,3,1,2,3.0,0.0,0.0,0.0,-3.0,-1.0,10
18,3,3822.08,26,3986.44,3987.96,4.28,B,left,0.75,9,0.65,14,0.73,8,0.63,13,-999,32.0,2,1,3,0.0,-1.0,0.0,-1.0,3.0,0.0,110
18,3,3822.08,27,3992.57,3994.09,4.88,C,mid,0.24,41,0.37,27,0.76,13,-999.0,-999,-999,99.0,1,3,2,0.0,0.0,0.0,0.0,0.0,0.0,0
18,3,3822.08,28,3999.3,4000.82,7.04,C,left,0.75,9,0.62,15,0.88,7,0.58,18,-999,2.0,2,3,1,0.0,-1.0,-3.0,0.0,3.0,-1.0,11
18,3,3822.08,29,4008.2,4009.72,6.65,A,left,0.78,9,0.62,14,0.76,8,0.6,13,-999,32.0,1,2,3,3.0,-1.0,-3.0,-1.0,0.0,-1.0,11
18,3,3822.08,30,4016.7,4018.21,9.46,B,left,0.72,10,0.68,14,0.7,9,0.66,13,-999,32.0,3,1,2,-3.0,0.0,3.0,-1.0,0.0,-1.0,110
18,3,3822.08,31,4028.01,4029.53,4.0,A,right,0.78,10,0.62,15,0.76,9,0.6,14,-999,32.0,3,1,2,3.0,0.0,-3.0,0.0,3.0,0.0,10
18,3,3822.08,32,4033.87,4035.39,6.89,B,right,0.72,9,0.65,15,0.7,8,0.63,14,-999,31.0,1,3,2,-3.0,-1.0,0.0,0.0,3.0,-1.0,1
18,3,3822.08,33,4042.62,4044.14,5.18,A,mid,0.72,10,0.62,14,0.7,9,0.6,13,-999,32.0,2,1,3,-3.0,0.0,-3.0,-1.0,0.0,0.0,11
18,3,3822.08,34,4049.67,4051.19,1.99,C,mid,0.27,37,0.47,21,0.86,11,-999.0,-999,-999,99.0,1,3,2,0.0,0.0,0.0,0.0,0.0,0.0,110
18,3,3822.08,35,4053.52,4055.03,8.01,B,left,0.72,10,0.62,15,0.7,9,0.6,14,-999,32.0,2,1,3,-3.0,0.0,-3.0,0.0,0.0,0.0,100
18,3,3822.08,36,4063.38,4064.9,10.04,B,right,0.72,10,0.65,14,0.7,9,0.63,13,-999,32.0,2,3,1,-3.0,0.0,0.0,-1.0,3.0,0.0,10
18,3,3822.08,37,4075.28,4076.79,9.42,A,right,0.75,9,0.65,15,0.73,8,0.63,14,-999,31.0,3,2,1,0.0,-1.0,0.0,0.0,3.0,-1.0,1
18,3,3822.08,38,4110.43,4111.95,5.28,A,mid,0.78,9,0.62,15,0.76,8,0.6,14,-999,32.0,2,1,3,3.0,-1.0,-3.0,0.0,-3.0,-1.0,10
18,3,3822.08,39,4117.58,4119.1,5.68,A,right,0.78,9,0.68,14,0.76,8,0.66,13,-999,32.0,3,1,2,3.0,-1.0,3.0,-1.0,3.0,-1.0,100
18,3,3822.08,40,4125.11,4126.63,9.42,A,left,0.78,9,0.62,15,0.85,7,0.55,18,-999,1.0,1,2,3,3.0,-1.0,-3.0,0.0,0.0,-1.0,100
18,3,3822.08,41,4136.39,4137.91,7.21,A,mid,0.72,9,0.65,15,0.7,8,0.63,14,-999,31.0,2,3,1,-3.0,-1.0,0.0,0.0,3.0,-1.0,0
18,3,3822.08,42,4145.46,4146.97,4.21,B,mid,0.72,9,0.68,14,0.7,8,0.66,13,-999,31.0,3,2,1,-3.0,-1.0,3.0,-1.0,-3.0,0.0,11
18,3,3822.08,43,4151.52,4153.04,5.11,B,right,0.72,10,0.62,15,0.7,9,0.6,14,-999,31.0,1,3,2,-3.0,0.0,-3.0,0.0,0.0,-1.0,0
18,3,3822.08,44,4158.48,4160.0,4.18,A,right,0.78,10,0.65,15,0.76,9,0.63,14,-999,32.0,3,1,2,3.0,0.0,0.0,0.0,0.0,0.0,110
18,3,3822.08,45,4164.52,4166.03,7.76,B,right,0.72,9,0.68,15,0.88,8,0.58,19,-999,2.0,1,3,2,-3.0,-1.0,3.0,0.0,3.0,0.0,100
18,3,3822.08,46,4174.13,4175.65,12.49,B,right,0.75,9,0.68,14,0.85,7,0.55,18,-999,2.0,1,3,2,0.0,-1.0,3.0,-1.0,0.0,-1.0,111
18,3,3822.08,47,4188.48,4189.99,2.91,A,mid,0.78,10,0.65,14,0.82,7,0.52,18,-999,2.0,2,3,1,3.0,0.0,0.0,-1.0,-3.0,-1.0,111
18,3,3822.08,48,4193.24,4194.76,5.67,A,right,0.75,10,0.65,15,0.85,8,0.55,19,-999,1.0,3,2,1,0.0,0.0,0.0,0.0,0.0,0.0,101
18,3,3822.08,49,4200.77,4202.29,5.87,B,mid,0.72,10,0.68,15,0.82,7,0.52,18,-999,1.0,3,2,1,-3.0,0.0,3.0,0.0,-3.0,-1.0,1
18,3,3822.08,50,4208.5,4210.02,5.67,A,right,0.75,10,0.65,15,0.73,9,0.63,14,-999,31.0,3,1,2,0.0,0.0,0.0,0.0,0.0,-1.0,100
18,3,3822.08,51,4216.03,4217.55,3.07,A,mid,0.78,9,0.62,15,0.76,8,0.6,14,-999,31.0,2,1,3,3.0,-1.0,-3.0,0.0,0.0,0.0,0
18,3,3822.08,52,4220.96,4222.48,6.68,B,right,0.78,10,0.68,15,0.82,8,0.52,19,-999,1.0,2,3,1,3.0,0.0,3.0,0.0,-3.0,0.0,111
18,3,3822.08,53,4229.49,4231.01,6.32,B,mid,0.72,9,0.65,14,0.7,8,0.63,13,-999,31.0,3,2,1,-3.0,-1.0,0.0,-1.0,3.0,-1.0,111
18,3,3822.08,54,4237.68,4239.19,5.34,B,left,0.72,10,0.68,15,0.82,8,0.52,19,-999,2.0,2,1,3,-3.0,0.0,3.0,0.0,-3.0,0.0,101
18,3,3822.08,55,4244.87,4246.39,7.05,B,right,0.75,9,0.68,14,0.73,8,0.66,13,-999,31.0,2,3,1,0.0,-1.0,3.0,-1.0,0.0,-1.0,101
18,3,3822.08,56,4253.79,4255.3,5.56,B,mid,0.78,9,0.68,15,0.85,7,0.55,18,-999,1.0,1,2,3,3.0,-1.0,3.0,0.0,0.0,-1.0,111
18,3,3822.08,57,4261.2,4262.72,6.69,A,right,0.75,9,0.62,15,0.88,8,0.58,19,-999,1.0,3,1,2,0.0,-1.0,-3.0,0.0,3.0,0.0,100
18,3,3822.08,58,4269.75,4271.27,10.79,A,left,0.75,10,0.65,14,0.73,9,0.63,13,-999,31.0,1,3,2,0.0,0.0,0.0,-1.0,-3.0,-1.0,101
18,3,3822.08,59,4282.39,4283.91,7.43,B,right,0.72,9,0.68,14,0.85,8,0.55,19,-999,2.0,1,3,2,-3.0,-1.0,3.0,-1.0,0.0,0.0,100
18,3,3822.08,60,4291.67,4293.19,4.42,A,mid,0.78,10,0.68,15,0.76,9,0.66,14,-999,31.0,2,3,1,3.0,0.0,3.0,0.0,0.0,0.0,101
18,3,3822.08,61,4297.96,4299.47,8.23,B,right,0.72,9,0.62,15,0.7,8,0.6,14,-999,32.0,1,3,2,-3.0,-1.0,-3.0,0.0,-3.0,-1.0,111
18,3,3822.08,62,4308.04,4309.55,10.12,B,right,0.72,10,0.65,15,0.82,7,0.52,18,-999,2.0,2,3,1,-3.0,0.0,0.0,0.0,-3.0,-1.0,10
18,3,3822.08,63,4320.02,4321.53,10.25,A,right,0.75,10,0.65,14,0.85,7,0.55,18,-999,2.0,3,2,1,0.0,0.0,0.0,-1.0,0.0,-1.0,0
18,3,3822.08,64,4332.13,4333.64,3.39,C,left,0.31,32,0.38,26,0.85,11,-999.0,-999,-999,99.0,2,3,1,0.0,0.0,0.0,0.0,0.0,0.0,111
18,3,3822.08,65,4337.38,4338.89,4.61,B,right,0.72,10,0.68,15,0.82,7,0.52,18,-999,1.0,2,3,1,-3.0,0.0,3.0,0.0,-3.0,-1.0,10
18,3,3822.08,66,4343.84,4345.36,6.39,B,right,0.75,9,0.68,14,0.73,8,0.66,13,-999,32.0,1,3,2,0.0,-1.0,3.0,-1.0,0.0,0.0,11
18,3,3822.08,67,4352.09,4353.61,4.46,B,right,0.72,10,0.65,15,0.7,9,0.63,14,-999,31.0,1,3,2,-3.0,0.0,0.0,0.0,-3.0,-1.0,0
18,3,3822.08,68,4358.4,4359.92,4.57,A,mid,0.75,10,0.62,14,0.88,8,0.58,19,-999,2.0,2,1,3,0.0,0.0,-3.0,-1.0,3.0,0.0,110
18,3,3822.08,69,4364.82,4366.33,5.56,B,left,0.75,10,0.65,15,0.82,7,0.52,18,-999,1.0,2,1,3,0.0,0.0,0.0,0.0,-3.0,-1.0,111
18,3,3822.08,70,4372.23,4373.75,8.74,A,mid,0.78,9,0.68,15,0.76,8,0.66,14,-999,31.0,2,1,3,3.0,-1.0,3.0,0.0,0.0,0.0,111
18,3,3822.08,71,4382.83,4384.34,5.21,A,right,0.78,10,0.65,14,0.82,8,0.52,19,-999,1.0,3,1,2,3.0,0.0,0.0,-1.0,-3.0,0.0,0
18,3,3822.08,72,4389.89,4391.41,14.47,C,left,0.72,10,0.62,14,0.85,8,0.55,19,-999,2.0,2,3,1,-3.0,0.0,-3.0,-1.0,0.0,0.0,10
18,3,3822.08,73,4406.22,4407.74,4.76,B,mid,0.72,9,0.65,15,0.85,8,0.55,19,-999,2.0,3,2,1,-3.0,-1.0,0.0,0.0,0.0,0.0,11
18,3,3822.08,74,4412.84,4414.35,2.64,A,left,0.78,10,0.62,14,0.76,9,0.6,13,-999,31.0,1,2,3,3.0,0.0,-3.0,-1.0,-3.0,0.0,1
18,3,3822.08,75,4417.33,4418.85,9.29,C,right,0.72,9,0.65,15,0.88,7,0.58,18,-999,2.0,2,1,3,-3.0,-1.0,0.0,0.0,3.0,-1.0,0
