subject,block,block_onset,trial,fixation_cross_onset,trial_onset,rt,choice,key,pA,mA,pB,mB,pCA,mCA,pCB,mCB,missing,condition,position_A,position_B,position_C,noise_Ap,noise_Am,noise_Bp,noise_Bm,noise_Cp,noise_Cm,attribute_positions
26,Practice,1381.29,P1,1381.34,1382.86,6.16,B,left,0.78,7,0.62,17,0.85,3,0.55,24,-999,2.0,3,1,2,3.0,-2.0,-3.0,2.0,0.0,-1.0,1
26,Practice,1381.29,P2,1389.35,1390.87,8.56,B,mid,0.72,7,0.62,16,0.88,5,0.58,26,-999,2.0,1,2,3,-3.0,-2.0,-3.0,1.0,3.0,1.0,10
26,Practice,1381.29,P3,1399.77,1401.28,14.17,B,right,0.75,11,0.68,13,0.85,4,0.55,25,-999,1.0,2,3,1,0.0,2.0,3.0,-2.0,0.0,0.0,110
26,Practice,1381.29,P4,1415.8,1417.31,6.62,A,right,0.75,9,0.65,15,0.88,5,0.58,26,-999,1.0,3,1,2,0.0,0.0,0.0,0.0,3.0,1.0,100
26,Practice,1381.29,P5,1424.38,1425.89,8.68,B,right,0.72,11,0.62,13,0.85,6,0.55,27,-999,1.0,1,3,2,-3.0,2.0,-3.0,-2.0,0.0,2.0,101
26,Practice,1381.29,P6,1434.91,1436.42,6.19,B,right,0.78,7,0.62,13,0.82,6,0.52,27,-999,2.0,2,3,1,3.0,-2.0,-3.0,-2.0,-3.0,2.0,110
26,Practice,1381.29,P7,1442.95,1444.47,7.26,C,right,0.75,7,0.65,17,0.85,5,0.55,26,-999,2.0,2,1,3,0.0,-2.0,0.0,2.0,0.0,1.0,111
26,Practice,1381.29,P8,1452.07,1453.58,3.71,B,left,0.72,8,0.68,15,0.82,6,0.52,27,-999,2.0,3,1,2,-3.0,-1.0,3.0,0.0,-3.0,2.0,110
26,Practice,1381.29,P9,1457.63,1459.15,6.69,B,left,0.78,8,0.62,16,0.88,5,0.58,26,-999,1.0,3,1,2,3.0,-1.0,-3.0,1.0,3.0,1.0,1
26,Practice,1381.29,P10,1466.18,1467.69,5.83,B,mid,0.75,10,0.65,16,0.82,2,0.52,23,-999,2.0,1,2,3,0.0,1.0,0.0,1.0,-3.0,-2.0,101
26,Practice,1381.29,P11,1473.86,1475.38,3.33,B,right,0.72,8,0.65,15,0.85,5,0.55,26,-999,2.0,2,3,1,-3.0,-1.0,0.0,0.0,0.0,1.0,0
26,Practice,1381.29,P12,1479.04,1480.56,4.89,B,right,0.72,8,0.68,15,0.85,5,0.55,26,-999,1.0,2,3,1,-3.0,-1.0,3.0,0.0,0.0,1.0,101
26,Practice,1381.29,P13,1485.79,1487.31,4.86,B,left,0.78,11,0.68,16,0.88,5,0.58,26,-999,1.0,2,1,3,3.0,2.0,3.0,1.0,3.0,1.0,111
26,Practice,1381.29,P14,1492.5,1494.02,4.08,B,mid,0.72,11,0.62,17,0.82,3,0.52,24,-999,2.0,3,2,1,-3.0,2.0,-3.0,2.0,-3.0,-1.0,0
26,Practice,1381.29,P15,1498.44,1499.95,5.25,B,right,0.78,7,0.68,14,0.88,5,0.58,26,-999,2.0,2,3,1,3.0,-2.0,3.0,-1.0,3.0,1.0,10
26,Practice,1381.29,P16,1505.53,1507.05,6.09,B,left,0.78,7,0.65,13,0.82,2,0.52,23,-999,2.0,2,1,3,3.0,-2.0,0.0,-2.0,-3.0,-2.0,1
26,Practice,1381.29,P17,1513.48,1515.0,8.1,A,right,0.72,10,0.65,13,0.82,5,0.52,26,-999,2.0,3,2,1,-3.0,1.0,0.0,-2.0,-3.0,1.0,110
26,Practice,1381.29,P18,1523.44,1524.96,7.63,C,mid,0.78,7,0.68,13,0.88,2,0.58,23,-999,2.0,3,1,2,3.0,-2.0,3.0,-2.0,3.0,-2.0,10
26,Practice,1381.29,P19,1532.94,1534.46,6.37,B,left,0.78,11,0.62,15,0.85,4,0.55,25,-999,1.0,3,1,2,3.0,2.0,-3.0,0.0,0.0,0.0,110
26,Practice,1381.29,P20,1541.17,1542.69,6.78,A,left,0.72,7,0.65,14,0.88,4,0.58,25,-999,1.0,1,3,2,-3.0,-2.0,0.0,-1.0,3.0,0.0,11
26,Practice,1381.29,P21,1549.82,1551.33,6.56,B,left,0.78,9,0.65,16,0.85,2,0.55,23,-999,1.0,3,1,2,3.0,0.0,0.0,1.0,0.0,-2.0,0
26,Practice,1381.29,P22,1558.23,1559.75,5.23,B,right,0.72,9,0.62,15,0.85,2,0.55,23,-999,1.0,1,3,2,-3.0,0.0,-3.0,0.0,0.0,-2.0,10
26,Practice,1381.29,P23,1565.33,1566.85,7.78,A,right,0.72,7,0.65,13,0.88,3,0.58,24,-999,1.0,3,1,2,-3.0,-2.0,0.0,-2.0,3.0,-1.0,100
26,Practice,1381.29,P24,1574.96,1576.48,5.86,B,left,0.78,7,0.65,13,0.82,5,0.52,26,-999,2.0,2,1,3,3.0,-2.0,0.0,-2.0,-3.0,1.0,10
26,Practice,1381.29,P25,1582.67,1584.19,6.86,A,mid,0.78,10,0.68,13,0.85,4,0.55,25,-999,1.0,2,3,1,3.0,1.0,3.0,-2.0,0.0,0.0,111
26,Estimation1,1737.73,E1,1737.81,1739.32,3.23,B,left,0.75,11,0.65,15,0.85,-999,0.55,20,3,,2,1,3,,,,,,,11
26,Estimation1,1737.73,E2,1742.89,1744.41,4.76,B,right,0.75,12,0.65,15,0.85,-999,0.55,20,1,2.0,1,3,2,,,,,,,101
26,Estimation1,1737.73,E3,1749.5,1751.02,5.22,A,right,0.75,12,0.65,15,0.85,-999,0.55,28,3,,3,1,2,,,,,,,100
26,Estimation1,1737.73,E4,1756.59,1758.1,7.17,C,left,0.75,12,0.65,15,0.85,6,0.55,28,1,2.0,2,3,1,,,,,,,101
26,Estimation1,1737.73,E5,1765.62,1767.13,6.21,A,left,0.75,12,0.65,15,0.85,6,0.55,24,2,1.0,1,2,3,,,,,,,1
26,Estimation1,1737.73,E6,1773.68,1775.2,4.56,B,left,0.75,12,0.65,15,0.85,8,0.55,24,1,2.0,2,1,3,,,,,,,101
26,Estimation1,1737.73,E7,1780.09,1781.61,6.27,A,left,0.75,12,0.65,15,0.85,8,0.55,26,2,1.0,1,2,3,,,,,,,100
26,Estimation1,1737.73,E8,1788.22,1789.74,6.8,B,right,0.75,12,0.65,15,0.85,9,0.55,26,1,2.0,2,3,1,,,,,,,100
26,Estimation1,1737.73,E9,1796.87,1798.39,7.87,C,left,0.75,12,0.65,15,0.85,9,0.55,27,2,1.0,3,2,1,,,,,,,100
26,Estimation1,1737.73,E10,1806.6,1808.12,7.62,C,mid,0.75,12,0.65,15,0.85,9,0.55,27,1,2.0,1,3,2,,,,,,,0
26,1,1826.0,1,1826.06,1827.58,9.66,B,mid,0.72,11,0.65,15,0.7,10,0.63,14,-999,31.0,1,2,3,-3.0,-1.0,0.0,0.0,3.0,-1.0,1
26,1,1826.0,2,1837.58,1839.09,17.38,B,left,0.16,62,0.46,21,0.87,11,-999.0,-999,-999,99.0,3,1,2,0.0,0.0,0.0,0.0,0.0,0.0,110
26,1,1826.0,3,1856.82,1858.34,11.48,A,right,0.75,11,0.68,14,0.73,10,0.66,13,-999,32.0,3,2,1,0.0,-1.0,3.0,-1.0,0.0,0.0,101
26,1,1826.0,4,1870.17,1871.68,10.67,C,mid,0.72,11,0.62,14,0.88,9,0.58,27,-999,2.0,1,3,2,-3.0,-1.0,-3.0,-1.0,3.0,0.0,0
26,1,1826.0,5,1882.69,1884.21,5.3,A,left,0.72,12,0.62,15,0.7,11,0.6,14,-999,32.0,1,3,2,-3.0,0.0,-3.0,0.0,3.0,-1.0,0
26,1,1826.0,6,1889.86,1891.38,10.41,A,mid,0.78,11,0.62,15,0.76,10,0.6,14,-999,32.0,2,1,3,3.0,-1.0,-3.0,0.0,-3.0,-1.0,111
26,1,1826.0,7,1902.12,1903.64,13.29,C,mid,0.75,12,0.65,14,0.85,8,0.55,26,-999,2.0,1,3,2,0.0,0.0,0.0,-1.0,0.0,-1.0,110
26,1,1826.0,8,1917.27,1918.78,13.79,B,right,0.72,12,0.68,15,0.82,9,0.52,27,-999,2.0,1,3,2,-3.0,0.0,3.0,0.0,-3.0,0.0,111
26,1,1826.0,9,1932.91,1934.43,9.58,A,right,0.78,12,0.65,15,0.76,11,0.63,14,-999,32.0,3,2,1,3.0,0.0,0.0,0.0,-3.0,-1.0,111
26,1,1826.0,10,1944.36,1945.87,13.23,C,mid,0.75,11,0.62,15,0.88,9,0.58,27,-999,1.0,1,3,2,0.0,-1.0,-3.0,0.0,3.0,0.0,101
26,1,1826.0,11,1959.45,1960.97,14.55,B,mid,0.75,12,0.65,15,0.85,9,0.55,27,-999,1.0,1,2,3,0.0,0.0,0.0,0.0,0.0,0.0,101
26,1,1826.0,12,1975.86,1977.38,8.44,A,right,0.78,11,0.62,15,0.85,8,0.55,26,-999,1.0,3,2,1,3.0,-1.0,-3.0,0.0,0.0,-1.0,1
26,1,1826.0,13,1986.16,1987.68,7.7,A,left,0.32,31,0.48,20,0.85,11,-999.0,-999,-999,99.0,1,3,2,0.0,0.0,0.0,0.0,0.0,0.0,100
26,1,1826.0,14,1995.73,1997.24,17.08,A,mid,0.78,11,0.68,15,0.85,8,0.55,26,-999,1.0,2,3,1,3.0,-1.0,3.0,0.0,0.0,-1.0,101
26,1,1826.0,15,2014.67,2016.19,4.54,B,mid,0.75,11,0.68,14,0.85,8,0.55,26,-999,2.0,3,2,1,0.0,-1.0,3.0,-1.0,0.0,-1.0,111
26,1,1826.0,16,2021.07,2022.58,13.99,C,mid,0.72,12,0.68,15,0.82,8,0.52,26,-999,1.0,1,3,2,-3.0,0.0,3.0,0.0,-3.0,-1.0,101
26,1,1826.0,17,2036.91,2038.43,10.72,B,left,0.72,12,0.68,15,0.82,8,0.52,26,-999,1.0,3,1,2,-3.0,0.0,3.0,0.0,-3.0,-1.0,0
26,1,1826.0,18,2049.49,2051.01,8.39,C,mid,0.78,12,0.65,14,0.82,8,0.52,26,-999,1.0,3,1,2,3.0,0.0,0.0,-1.0,-3.0,-1.0,0
26,1,1826.0,19,2059.74,2061.25,14.58,B,left,0.72,11,0.65,14,0.7,10,0.63,13,-999,31.0,3,1,2,-3.0,-1.0,0.0,-1.0,3.0,-1.0,111
26,1,1826.0,20,2076.17,2077.68,9.21,A,right,0.75,12,0.65,15,0.73,11,0.63,14,-999,31.0,3,1,2,0.0,0.0,0.0,0.0,0.0,-1.0,10
26,1,1826.0,21,2087.23,2088.74,15.06,C,left,0.75,12,0.62,14,0.88,9,0.58,27,-999,2.0,3,2,1,0.0,0.0,-3.0,-1.0,3.0,0.0,110
26,1,1826.0,22,2104.14,2105.66,24.46,A,mid,0.75,11,0.65,14,0.73,10,0.63,13,-999,32.0,2,1,3,0.0,-1.0,0.0,-1.0,3.0,0.0,0
26,1,1826.0,23,2130.45,2131.96,10.06,B,left,0.72,11,0.68,15,0.88,9,0.58,27,-999,2.0,2,1,3,-3.0,-1.0,3.0,0.0,3.0,0.0,11
26,1,1826.0,24,2142.36,2143.88,10.55,B,left,0.72,11,0.65,15,0.85,9,0.55,27,-999,2.0,2,1,3,-3.0,-1.0,0.0,0.0,0.0,0.0,101
26,1,1826.0,25,2154.76,2156.27,12.48,B,left,0.72,12,0.65,15,0.82,8,0.52,26,-999,2.0,2,1,3,-3.0,0.0,0.0,0.0,-3.0,-1.0,1
26,1,1826.0,26,2169.1,2170.62,11.78,C,left,0.75,12,0.62,15,0.88,8,0.58,26,-999,1.0,2,3,1,0.0,0.0,-3.0,0.0,3.0,-1.0,11
26,1,1826.0,27,2182.73,2184.25,10.43,A,left,0.72,12,0.65,15,0.82,8,0.52,26,-999,1.0,1,2,3,-3.0,0.0,0.0,0.0,-3.0,-1.0,100
26,1,1826.0,28,2195.01,2196.53,4.77,A,left,0.78,12,0.62,14,0.85,9,0.55,27,-999,2.0,1,3,2,3.0,0.0,-3.0,-1.0,0.0,0.0,11
26,1,1826.0,29,2201.64,2203.16,10.75,B,mid,0.27,37,0.47,21,0.86,11,-999.0,-999,-999,99.0,1,2,3,0.0,0.0,0.0,0.0,0.0,0.0,101
26,1,1826.0,30,2214.25,2215.77,7.96,A,left,0.78,11,0.65,15,0.76,10,0.63,14,-999,32.0,1,2,3,3.0,-1.0,0.0,0.0,-3.0,-1.0,111
26,1,1826.0,31,2224.07,2225.58,8.97,A,mid,0.72,12,0.68,14,0.7,11,0.66,13,-999,32.0,2,1,3,-3.0,0.0,3.0,-1.0,0.0,-1.0,101
26,1,1826.0,32,2234.9,2236.41,6.43,A,mid,0.72,11,0.68,14,0.7,10,0.66,13,-999,31.0,2,3,1,-3.0,-1.0,3.0,-1.0,-3.0,0.0,100
26,1,1826.0,33,2243.18,2244.69,8.49,A,mid,0.72,12,0.62,14,0.85,9,0.55,27,-999,2.0,2,1,3,-3.0,0.0,-3.0,-1.0,0.0,0.0,0
26,1,1826.0,34,2253.54,2255.06,12.84,C,left,0.72,11,0.68,14,0.85,9,0.55,27,-999,2.0,2,3,1,-3.0,-1.0,3.0,-1.0,0.0,0.0,110
26,1,1826.0,35,2268.24,2269.75,5.66,C,right,0.78,11,0.68,15,0.88,9,0.58,27,-999,1.0,1,2,3,3.0,-1.0,3.0,0.0,3.0,0.0,10
26,1,1826.0,36,2275.75,2277.27,10.23,C,mid,0.75,12,0.65,15,0.82,8,0.52,26,-999,1.0,1,3,2,0.0,0.0,0.0,0.0,-3.0,-1.0,100
26,1,1826.0,37,2287.83,2289.35,15.41,C,mid,0.72,12,0.62,14,0.85,9,0.55,27,-999,2.0,3,1,2,-3.0,0.0,-3.0,-1.0,0.0,0.0,110
26,1,1826.0,38,2346.29,2347.81,9.47,A,mid,0.78,11,0.62,15,0.76,10,0.6,14,-999,31.0,2,3,1,3.0,-1.0,-3.0,0.0,0.0,0.0,0
26,1,1826.0,39,2357.62,2359.14,5.47,C,right,0.78,12,0.68,15,0.88,8,0.58,26,-999,1.0,2,1,3,3.0,0.0,3.0,0.0,3.0,-1.0,111
26,1,1826.0,40,2364.96,2366.47,13.78,C,right,0.24,41,0.37,27,0.76,13,-999.0,-999,-999,99.0,1,2,3,0.0,0.0,0.0,0.0,0.0,0.0,100
26,1,1826.0,41,2380.58,2382.1,7.94,A,left,0.72,12,0.62,15,0.7,11,0.6,14,-999,31.0,1,2,3,-3.0,0.0,-3.0,0.0,0.0,-1.0,110
26,1,1826.0,42,2390.38,2391.9,12.92,A,left,0.78,11,0.68,15,0.76,10,0.66,14,-999,31.0,1,2,3,3.0,-1.0,3.0,0.0,0.0,0.0,11
26,1,1826.0,43,2405.16,2406.68,4.36,A,right,0.78,12,0.65,15,0.76,11,0.63,14,-999,32.0,3,1,2,3.0,0.0,0.0,0.0,0.0,0.0,110
26,1,1826.0,44,2411.37,2412.89,8.69,C,right,0.32,31,0.6,16,0.78,12,-999.0,-999,-999,99.0,2,1,3,0.0,0.0,0.0,0.0,0.0,0.0,110
26,1,1826.0,45,2421.92,2423.44,8.55,C,mid,0.78,12,0.65,14,0.82,8,0.52,26,-999,2.0,1,3,2,3.0,0.0,0.0,-1.0,-3.0,-1.0,1
26,1,1826.0,46,2432.33,2433.85,19.2,A,left,0.75,12,0.65,14,0.73,11,0.63,13,-999,31.0,1,2,3,0.0,0.0,0.0,-1.0,0.0,0.0,110
26,1,1826.0,47,2453.39,2454.91,17.04,A,right,0.72,11,0.65,15,0.7,10,0.63,14,-999,31.0,3,1,2,-3.0,-1.0,0.0,0.0,3.0,-1.0,10
26,1,1826.0,48,2472.29,2473.8,11.64,A,right,0.72,12,0.65,15,0.7,11,0.63,14,-999,31.0,3,2,1,-3.0,0.0,0.0,0.0,-3.0,-1.0,1
26,1,1826.0,49,2485.78,2487.3,9.39,C,right,0.72,11,0.65,15,0.88,8,0.58,26,-999,2.0,2,1,3,-3.0,-1.0,0.0,0.0,3.0,-1.0,10
26,1,1826.0,50,2497.03,2498.55,13.38,C,left,0.75,11,0.62,15,0.88,8,0.58,26,-999,2.0,2,3,1,0.0,-1.0,-3.0,0.0,3.0,-1.0,11
26,1,1826.0,51,2512.27,2513.79,11.99,A,left,0.75,11,0.65,15,0.73,10,0.63,14,-999,31.0,1,2,3,0.0,-1.0,0.0,0.0,3.0,-1.0,10
26,1,1826.0,52,2526.12,2527.64,15.13,A,left,0.75,11,0.62,15,0.73,10,0.6,14,-999,32.0,1,2,3,0.0,-1.0,-3.0,0.0,-3.0,0.0,11
26,1,1826.0,53,2543.11,2544.63,14.19,A,right,0.75,12,0.65,15,0.73,11,0.63,14,-999,31.0,3,2,1,0.0,0.0,0.0,0.0,0.0,0.0,0
26,1,1826.0,54,2559.16,2560.68,14.48,A,mid,0.78,11,0.68,14,0.76,10,0.66,13,-999,32.0,2,1,3,3.0,-1.0,3.0,-1.0,3.0,-1.0,1
26,1,1826.0,55,2575.49,2577.0,34.39,C,right,0.19,52,0.56,17,0.8,12,-999.0,-999,-999,99.0,2,1,3,0.0,0.0,0.0,0.0,0.0,0.0,10
26,1,1826.0,56,2611.74,2613.26,14.06,C,right,0.72,12,0.68,14,0.88,9,0.58,27,-999,2.0,1,2,3,-3.0,0.0,3.0,-1.0,3.0,0.0,0
26,1,1826.0,57,2627.65,2629.17,20.39,C,right,0.28,35,0.67,14,0.78,12,-999.0,-999,-999,99.0,2,1,3,0.0,0.0,0.0,0.0,0.0,0.0,100
26,1,1826.0,58,2649.9,2651.41,16.17,B,mid,0.78,11,0.62,14,0.76,10,0.6,13,-999,32.0,1,2,3,3.0,-1.0,-3.0,-1.0,0.0,-1.0,0
26,1,1826.0,59,2667.92,2669.44,8.7,A,mid,0.75,12,0.65,14,0.73,11,0.63,13,-999,31.0,2,3,1,0.0,0.0,0.0,-1.0,-3.0,-1.0,10
26,1,1826.0,60,2678.49,2680.0,8.82,B,mid,0.19,52,0.59,16,0.81,12,-999.0,-999,-999,99.0,1,2,3,0.0,0.0,0.0,0.0,0.0,0.0,101
26,1,1826.0,61,2689.17,2690.68,7.43,A,left,0.72,11,0.62,15,0.7,10,0.6,14,-999,32.0,1,3,2,-3.0,-1.0,-3.0,0.0,-3.0,-1.0,111
26,1,1826.0,62,2698.45,2699.96,6.81,A,mid,0.78,12,0.62,15,0.76,11,0.6,14,-999,32.0,2,1,3,3.0,0.0,-3.0,0.0,3.0,0.0,100
26,1,1826.0,63,2707.11,2708.63,23.03,A,right,0.75,11,0.68,14,0.73,10,0.66,13,-999,31.0,3,1,2,0.0,-1.0,3.0,-1.0,0.0,-1.0,110
26,1,1826.0,64,2731.99,2733.5,13.61,C,left,0.78,12,0.62,14,0.85,8,0.55,26,-999,1.0,3,2,1,3.0,0.0,-3.0,-1.0,0.0,-1.0,1
26,1,1826.0,65,2747.45,2748.96,10.78,A,right,0.72,12,0.65,14,0.7,11,0.63,13,-999,32.0,3,1,2,-3.0,0.0,0.0,-1.0,3.0,0.0,111
26,1,1826.0,66,2760.08,2761.59,16.31,A,right,0.29,34,0.42,23,0.72,13,-999.0,-999,-999,99.0,3,2,1,0.0,0.0,0.0,0.0,0.0,0.0,0
26,1,1826.0,67,2778.24,2779.75,22.42,A,left,0.31,32,0.38,26,0.85,11,-999.0,-999,-999,99.0,1,2,3,0.0,0.0,0.0,0.0,0.0,0.0,0
26,1,1826.0,68,2802.51,2804.03,8.33,C,left,0.27,37,0.61,16,0.89,11,-999.0,-999,-999,99.0,2,3,1,0.0,0.0,0.0,0.0,0.0,0.0,110
26,1,1826.0,69,2812.69,2814.21,12.23,A,mid,0.75,11,0.68,15,0.88,9,0.58,27,-999,1.0,2,1,3,0.0,-1.0,3.0,0.0,3.0,0.0,101
26,1,1826.0,70,2826.79,2828.31,9.28,B,left,0.72,12,0.62,14,0.7,11,0.6,13,-999,32.0,2,1,3,-3.0,0.0,-3.0,-1.0,0.0,0.0,111
26,1,1826.0,71,2837.94,2839.45,27.22,A,left,0.78,12,0.65,14,0.82,9,0.52,27,-999,1.0,1,3,2,3.0,0.0,0.0,-1.0,-3.0,0.0,10
26,1,1826.0,72,2867.01,2868.53,8.99,A,left,0.78,12,0.62,14,0.76,11,0.6,13,-999,31.0,1,2,3,3.0,0.0,-3.0,-1.0,-3.0,0.0,111
26,1,1826.0,73,2877.86,2879.37,9.46,A,right,0.78,12,0.68,15,0.76,11,0.66,14,-999,31.0,3,1,2,3.0,0.0,3.0,0.0,0.0,0.0,111
26,1,1826.0,74,2889.17,2890.69,9.31,C,left,0.78,12,0.68,15,0.82,9,0.52,27,-999,1.0,3,2,1,3.0,0.0,3.0,0.0,-3.0,0.0,100
26,1,1826.0,75,2900.33,2901.85,8.45,B,left,0.72,12,0.62,15,0.7,11,0.6,14,-999,32.0,3,1,2,-3.0,0.0,-3.0,0.0,0.0,0.0,0
26,Estimation2,2989.48,E1,2989.54,2991.05,12.77,B,right,0.75,11,0.65,15,0.85,-999,0.55,20,3,,1,3,2,,,,,,,110
26,Estimation2,2989.48,E2,3004.17,3005.68,6.39,B,left,0.75,12,0.65,15,0.85,-999,0.55,20,1,2.0,3,1,2,,,,,,,110
26,Estimation2,2989.48,E3,3012.41,3013.93,4.5,A,mid,0.75,12,0.65,15,0.85,-999,0.55,28,3,,2,1,3,,,,,,,110
26,Estimation2,2989.48,E4,3018.78,3020.29,9.24,B,mid,0.75,12,0.65,15,0.85,6,0.55,28,1,2.0,3,2,1,,,,,,,110
26,Estimation2,2989.48,E5,3029.87,3031.39,8.94,A,right,0.75,12,0.65,15,0.85,6,0.55,32,2,1.0,3,2,1,,,,,,,100
26,Estimation2,2989.48,E6,3040.67,3042.19,6.99,C,right,0.75,12,0.65,15,0.85,8,0.55,32,1,2.0,2,1,3,,,,,,,110
26,Estimation2,2989.48,E7,3049.52,3051.03,3.49,C,right,0.75,12,0.65,15,0.85,8,0.55,30,2,1.0,1,2,3,,,,,,,0
26,Estimation2,2989.48,E8,3054.87,3056.38,6.05,C,mid,0.75,12,0.65,15,0.85,7,0.55,30,1,2.0,3,1,2,,,,,,,1
26,Estimation2,2989.48,E9,3062.78,3064.3,9.48,C,mid,0.75,12,0.65,15,0.85,7,0.55,29,2,1.0,1,3,2,,,,,,,1
26,Estimation2,2989.48,E10,3074.13,3075.64,10.4,B,right,0.75,12,0.65,15,0.85,7,0.55,29,1,2.0,1,3,2,,,,,,,0
26,Estimation2,2989.48,E11,3086.39,3087.91,7.39,A,left,0.75,12,0.65,15,0.85,7,0.55,30,2,1.0,1,2,3,,,,,,,0
26,Estimation2,2989.48,E12,3095.64,3097.15,6.54,C,mid,0.75,12,0.65,15,0.85,7,0.55,30,1,2.0,3,1,2,,,,,,,101
26,2,3120.0,1,3120.08,3121.59,15.49,C,right,0.28,35,0.67,14,0.78,12,-999.0,-999,-999,99.0,1,2,3,0.0,0.0,0.0,0.0,0.0,0.0,111
26,2,3120.0,2,3137.42,3138.94,5.75,A,right,0.72,12,0.62,14,0.7,11,0.6,13,-999,32.0,3,2,1,-3.0,0.0,-3.0,-1.0,0.0,0.0,111
26,2,3120.0,3,3145.02,3146.54,15.64,A,right,0.78,11,0.68,14,0.76,10,0.66,13,-999,32.0,3,2,1,3.0,-1.0,3.0,-1.0,3.0,-1.0,110
26,2,3120.0,4,3162.52,3164.03,8.28,B,right,0.72,12,0.68,15,0.82,6,0.52,29,-999,1.0,2,3,1,-3.0,0.0,3.0,0.0,-3.0,-1.0,110
26,2,3120.0,5,3172.65,3174.16,12.95,C,mid,0.72,12,0.62,14,0.85,7,0.55,30,-999,2.0,3,1,2,-3.0,0.0,-3.0,-1.0,0.0,0.0,11
26,2,3120.0,6,3187.46,3188.97,8.67,C,right,0.72,11,0.62,14,0.88,7,0.58,30,-999,2.0,1,2,3,-3.0,-1.0,-3.0,-1.0,3.0,0.0,101
26,2,3120.0,7,3197.99,3199.5,6.34,A,left,0.72,11,0.62,15,0.7,10,0.6,14,-999,32.0,1,3,2,-3.0,-1.0,-3.0,0.0,-3.0,-1.0,111
26,2,3120.0,8,3206.18,3207.7,19.9,C,right,0.24,41,0.37,27,0.76,13,-999.0,-999,-999,99.0,2,1,3,0.0,0.0,0.0,0.0,0.0,0.0,11
26,2,3120.0,9,3227.94,3229.46,18.69,B,left,0.72,12,0.65,15,0.82,6,0.52,29,-999,2.0,2,1,3,-3.0,0.0,0.0,0.0,-3.0,-1.0,100
26,2,3120.0,10,3248.49,3250.0,20.39,B,mid,0.75,11,0.68,14,0.73,10,0.66,13,-999,31.0,3,2,1,0.0,-1.0,3.0,-1.0,0.0,-1.0,0
26,2,3120.0,11,3270.73,3272.25,10.26,C,left,0.32,31,0.48,20,0.85,11,-999.0,-999,-999,99.0,2,3,1,0.0,0.0,0.0,0.0,0.0,0.0,111
26,2,3120.0,12,3282.84,3284.36,28.3,A,right,0.72,11,0.65,14,0.7,10,0.63,13,-999,31.0,3,2,1,-3.0,-1.0,0.0,-1.0,3.0,-1.0,0
26,2,3120.0,13,3313.0,3314.52,12.15,A,mid,0.72,11,0.65,15,0.7,10,0.63,14,-999,31.0,2,1,3,-3.0,-1.0,0.0,0.0,3.0,-1.0,1
26,2,3120.0,14,3326.99,3328.51,7.49,A,right,0.75,11,0.62,15,0.73,10,0.6,14,-999,32.0,3,2,1,0.0,-1.0,-3.0,0.0,-3.0,0.0,10
26,2,3120.0,15,3336.34,3337.86,10.24,C,mid,0.19,52,0.59,16,0.81,12,-999.0,-999,-999,99.0,3,1,2,0.0,0.0,0.0,0.0,0.0,0.0,110
26,2,3120.0,16,3348.44,3349.95,5.84,A,right,0.78,12,0.65,15,0.76,11,0.63,14,-999,32.0,3,1,2,3.0,0.0,0.0,0.0,0.0,0.0,0
26,2,3120.0,17,3356.14,3357.65,11.39,C,right,0.32,31,0.6,16,0.78,12,-999.0,-999,-999,99.0,2,1,3,0.0,0.0,0.0,0.0,0.0,0.0,110
26,2,3120.0,18,3369.38,3370.9,9.16,C,mid,0.27,37,0.61,16,0.89,11,-999.0,-999,-999,99.0,3,1,2,0.0,0.0,0.0,0.0,0.0,0.0,110
26,2,3120.0,19,3380.39,3381.91,10.64,B,right,0.75,11,0.68,14,0.85,6,0.55,29,-999,2.0,1,3,2,0.0,-1.0,3.0,-1.0,0.0,-1.0,0
26,2,3120.0,20,3392.89,3394.41,5.94,A,right,0.75,11,0.65,15,0.73,10,0.63,14,-999,31.0,3,2,1,0.0,-1.0,0.0,0.0,3.0,-1.0,1
26,2,3120.0,21,3400.69,3402.2,13.21,C,left,0.75,12,0.62,14,0.88,7,0.58,30,-999,2.0,2,3,1,0.0,0.0,-3.0,-1.0,3.0,0.0,11
26,2,3120.0,22,3415.75,3417.27,14.3,A,left,0.78,12,0.68,15,0.82,7,0.52,30,-999,1.0,1,3,2,3.0,0.0,3.0,0.0,-3.0,0.0,10
26,2,3120.0,23,3431.91,3433.43,9.87,C,left,0.72,11,0.68,15,0.88,7,0.58,30,-999,2.0,3,2,1,-3.0,-1.0,3.0,0.0,3.0,0.0,10
26,2,3120.0,24,3443.64,3445.16,13.56,A,right,0.78,12,0.62,14,0.85,6,0.55,29,-999,1.0,3,1,2,3.0,0.0,-3.0,-1.0,0.0,-1.0,11
26,2,3120.0,25,3459.05,3460.57,11.96,B,right,0.72,11,0.68,14,0.85,7,0.55,30,-999,2.0,2,3,1,-3.0,-1.0,3.0,-1.0,0.0,0.0,101
26,2,3120.0,26,3472.86,3474.38,7.78,A,right,0.75,12,0.65,15,0.73,11,0.63,14,-999,31.0,3,2,1,0.0,0.0,0.0,0.0,0.0,0.0,10
26,2,3120.0,27,3482.51,3484.03,8.45,A,right,0.72,12,0.65,14,0.7,11,0.63,13,-999,32.0,3,2,1,-3.0,0.0,0.0,-1.0,3.0,0.0,111
26,2,3120.0,28,3492.83,3494.34,3.9,A,right,0.75,12,0.65,14,0.73,11,0.63,13,-999,31.0,3,1,2,0.0,0.0,0.0,-1.0,-3.0,-1.0,10
26,2,3120.0,29,3498.59,3500.11,8.37,A,mid,0.78,12,0.62,14,0.85,7,0.55,30,-999,2.0,2,3,1,3.0,0.0,-3.0,-1.0,0.0,0.0,100
26,2,3120.0,30,3508.82,3510.34,7.16,A,left,0.78,12,0.65,15,0.76,11,0.63,14,-999,32.0,1,2,3,3.0,0.0,0.0,0.0,-3.0,-1.0,11
26,2,3120.0,31,3517.83,3519.35,8.91,A,mid,0.75,12,0.65,15,0.82,6,0.52,29,-999,1.0,2,3,1,0.0,0.0,0.0,0.0,-3.0,-1.0,1
26,2,3120.0,32,3528.6,3530.11,22.06,C,mid,0.75,11,0.68,15,0.88,7,0.58,30,-999,1.0,1,3,2,0.0,-1.0,3.0,0.0,3.0,0.0,0
26,2,3120.0,33,3552.51,3554.02,10.22,A,right,0.72,12,0.65,15,0.82,6,0.52,29,-999,1.0,3,1,2,-3.0,0.0,0.0,0.0,-3.0,-1.0,100
26,2,3120.0,34,3564.58,3566.1,19.09,A,left,0.72,12,0.62,14,0.85,7,0.55,30,-999,2.0,1,2,3,-3.0,0.0,-3.0,-1.0,0.0,0.0,0
26,2,3120.0,35,3585.53,3587.04,13.05,A,mid,0.75,11,0.68,14,0.73,10,0.66,13,-999,32.0,2,1,3,0.0,-1.0,3.0,-1.0,0.0,0.0,10
26,2,3120.0,36,3600.42,3601.94,10.45,B,right,0.72,11,0.65,15,0.85,7,0.55,30,-999,2.0,1,3,2,-3.0,-1.0,0.0,0.0,0.0,0.0,111
26,2,3120.0,37,3612.72,3614.24,9.49,C,right,0.31,32,0.38,26,0.85,11,-999.0,-999,-999,99.0,1,2,3,0.0,0.0,0.0,0.0,0.0,0.0,10
26,2,3120.0,38,3651.76,3653.27,5.33,A,right,0.72,12,0.62,15,0.7,11,0.6,14,-999,32.0,3,2,1,-3.0,0.0,-3.0,0.0,3.0,-1.0,100
26,2,3120.0,39,3658.94,3660.45,9.75,A,left,0.75,12,0.65,15,0.73,11,0.63,14,-999,31.0,1,2,3,0.0,0.0,0.0,0.0,0.0,-1.0,101
26,2,3120.0,40,3670.55,3672.07,34.73,A,left,0.72,11,0.65,15,0.7,10,0.63,14,-999,31.0,1,3,2,-3.0,-1.0,0.0,0.0,3.0,-1.0,11
26,2,3120.0,41,3707.14,3708.66,6.86,B,right,0.75,11,0.65,14,0.73,10,0.63,13,-999,32.0,1,3,2,0.0,-1.0,0.0,-1.0,3.0,0.0,11
26,2,3120.0,42,3715.85,3717.37,7.23,C,mid,0.72,12,0.68,14,0.88,7,0.58,30,-999,2.0,3,1,2,-3.0,0.0,3.0,-1.0,3.0,0.0,111
26,2,3120.0,43,3724.93,3726.45,5.18,A,left,0.72,12,0.68,14,0.7,11,0.66,13,-999,32.0,1,3,2,-3.0,0.0,3.0,-1.0,0.0,-1.0,111
26,2,3120.0,44,3731.96,3733.48,5.98,A,mid,0.78,12,0.65,14,0.82,6,0.52,29,-999,2.0,2,1,3,3.0,0.0,0.0,-1.0,-3.0,-1.0,10
26,2,3120.0,45,3739.81,3741.33,5.8,C,right,0.19,52,0.56,17,0.8,12,-999.0,-999,-999,99.0,1,2,3,0.0,0.0,0.0,0.0,0.0,0.0,0
26,2,3120.0,46,3747.48,3748.99,19.01,C,mid,0.72,11,0.65,15,0.88,6,0.58,29,-999,2.0,3,1,2,-3.0,-1.0,0.0,0.0,3.0,-1.0,0
26,2,3120.0,47,3768.34,3769.85,5.68,C,right,0.78,12,0.68,15,0.88,6,0.58,29,-999,1.0,1,2,3,3.0,0.0,3.0,0.0,3.0,-1.0,100
26,2,3120.0,48,3775.87,3777.38,11.82,A,mid,0.78,11,0.68,15,0.88,7,0.58,30,-999,1.0,2,1,3,3.0,-1.0,3.0,0.0,3.0,0.0,101
26,2,3120.0,49,3789.55,3791.06,7.91,A,left,0.72,12,0.62,15,0.7,11,0.6,14,-999,31.0,1,2,3,-3.0,0.0,-3.0,0.0,0.0,-1.0,100
26,2,3120.0,50,3799.31,3800.83,7.25,A,mid,0.78,11,0.65,15,0.76,10,0.63,14,-999,32.0,2,3,1,3.0,-1.0,0.0,0.0,-3.0,-1.0,11
26,2,3120.0,51,3808.42,3809.94,7.72,A,right,0.16,62,0.46,21,0.87,11,-999.0,-999,-999,99.0,3,2,1,0.0,0.0,0.0,0.0,0.0,0.0,11
26,2,3120.0,52,3818.0,3819.52,23.73,C,right,0.75,11,0.62,15,0.88,6,0.58,29,-999,2.0,2,1,3,0.0,-1.0,-3.0,0.0,3.0,-1.0,10
26,2,3120.0,53,3843.59,3845.11,12.34,A,left,0.78,11,0.68,15,0.85,6,0.55,29,-999,1.0,1,3,2,3.0,-1.0,3.0,0.0,0.0,-1.0,10
26,2,3120.0,54,3857.79,3859.31,9.31,A,mid,0.75,12,0.65,14,0.73,11,0.63,13,-999,31.0,2,1,3,0.0,0.0,0.0,-1.0,0.0,0.0,110
26,2,3120.0,55,3868.95,3870.47,13.75,C,mid,0.29,34,0.42,23,0.72,13,-999.0,-999,-999,99.0,1,3,2,0.0,0.0,0.0,0.0,0.0,0.0,0
26,2,3120.0,56,3884.56,3886.08,3.6,A,left,0.78,12,0.62,15,0.76,11,0.6,14,-999,32.0,1,2,3,3.0,0.0,-3.0,0.0,3.0,0.0,110
26,2,3120.0,57,3890.01,3891.53,5.12,A,mid,0.78,12,0.65,14,0.82,7,0.52,30,-999,1.0,2,3,1,3.0,0.0,0.0,-1.0,-3.0,0.0,111
26,2,3120.0,58,3896.99,3898.51,8.47,A,mid,0.78,11,0.62,15,0.76,10,0.6,14,-999,31.0,2,1,3,3.0,-1.0,-3.0,0.0,0.0,0.0,101
26,2,3120.0,59,3907.32,3908.84,6.57,A,right,0.78,11,0.62,15,0.76,10,0.6,14,-999,32.0,3,2,1,3.0,-1.0,-3.0,0.0,-3.0,-1.0,100
26,2,3120.0,60,3915.75,3917.27,11.85,C,right,0.27,37,0.47,21,0.86,11,-999.0,-999,-999,99.0,1,2,3,0.0,0.0,0.0,0.0,0.0,0.0,111
26,2,3120.0,61,3929.47,3930.98,7.56,A,left,0.78,11,0.62,15,0.85,6,0.55,29,-999,1.0,1,2,3,3.0,-1.0,-3.0,0.0,0.0,-1.0,1
26,2,3120.0,62,3938.88,3940.4,6.02,A,right,0.78,12,0.65,14,0.82,6,0.52,29,-999,1.0,3,2,1,3.0,0.0,0.0,-1.0,-3.0,-1.0,0
26,2,3120.0,63,3946.76,3948.28,4.12,A,mid,0.75,12,0.62,15,0.88,6,0.58,29,-999,1.0,2,3,1,0.0,0.0,-3.0,0.0,3.0,-1.0,10
26,2,3120.0,64,3952.74,3954.26,4.46,A,right,0.78,12,0.68,15,0.76,11,0.66,14,-999,31.0,3,1,2,3.0,0.0,3.0,0.0,0.0,0.0,111
26,2,3120.0,65,3959.06,3960.57,3.25,A,right,0.72,12,0.62,15,0.7,11,0.6,14,-999,32.0,3,2,1,-3.0,0.0,-3.0,0.0,0.0,0.0,110
26,2,3120.0,66,3964.17,3965.69,5.04,A,left,0.75,12,0.65,14,0.85,6,0.55,29,-999,2.0,1,2,3,0.0,0.0,0.0,-1.0,0.0,-1.0,100
26,2,3120.0,67,3971.07,3972.59,6.39,A,left,0.78,11,0.62,14,0.76,10,0.6,13,-999,32.0,1,2,3,3.0,-1.0,-3.0,-1.0,0.0,-1.0,0
26,2,3120.0,68,3979.32,3980.83,9.34,B,mid,0.72,12,0.68,15,0.82,7,0.52,30,-999,2.0,1,2,3,-3.0,0.0,3.0,0.0,-3.0,0.0,10
26,2,3120.0,69,3990.51,3992.03,6.48,A,right,0.78,12,0.62,14,0.76,11,0.6,13,-999,31.0,3,1,2,3.0,0.0,-3.0,-1.0,-3.0,0.0,0
26,2,3120.0,70,3998.86,4000.38,14.55,C,left,0.75,12,0.65,15,0.85,7,0.55,30,-999,1.0,2,3,1,0.0,0.0,0.0,0.0,0.0,0.0,110
26,2,3120.0,71,4015.27,4016.79,9.27,B,mid,0.72,11,0.68,14,0.7,10,0.66,13,-999,31.0,3,2,1,-3.0,-1.0,3.0,-1.0,-3.0,0.0,10
26,2,3120.0,72,4026.4,4027.92,5.92,A,right,0.75,11,0.62,15,0.88,7,0.58,30,-999,1.0,3,2,1,0.0,-1.0,-3.0,0.0,3.0,0.0,110
26,2,3120.0,73,4034.18,4035.7,9.26,A,right,0.78,11,0.68,15,0.76,10,0.66,14,-999,31.0,3,1,2,3.0,-1.0,3.0,0.0,0.0,0.0,10
26,2,3120.0,74,4045.3,4046.81,8.69,A,mid,0.72,12,0.65,15,0.7,11,0.63,14,-999,31.0,2,1,3,-3.0,0.0,0.0,0.0,-3.0,-1.0,1
26,2,3120.0,75,4055.84,4057.36,9.34,B,mid,0.72,12,0.68,15,0.82,6,0.52,29,-999,1.0,3,2,1,-3.0,0.0,3.0,0.0,-3.0,-1.0,110
26,Estimation3,4158.69,E1,4158.76,4160.28,4.44,A,left,0.75,11,0.65,15,0.85,-999,0.55,20,3,,1,3,2,,,,,,,110
26,Estimation3,4158.69,E2,4165.04,4166.56,5.03,B,mid,0.75,8,0.65,15,0.85,-999,0.55,20,1,2.0,3,2,1,,,,,,,110
26,Estimation3,4158.69,E3,4171.92,4173.44,7.89,A,right,0.75,8,0.65,15,0.85,-999,0.55,28,3,,3,2,1,,,,,,,11
26,Estimation3,4158.69,E4,4181.67,4183.19,5.82,C,mid,0.75,6,0.65,15,0.85,-999,0.55,28,1,2.0,1,3,2,,,,,,,111
26,Estimation3,4158.69,E5,4189.35,4190.87,8.83,A,right,0.75,6,0.65,15,0.85,-999,0.55,24,3,,3,1,2,,,,,,,100
26,Estimation3,4158.69,E6,4200.05,4201.56,4.98,B,mid,0.75,5,0.65,15,0.85,-999,0.55,24,1,2.0,3,2,1,,,,,,,11
26,Estimation3,4158.69,E7,4206.89,4208.41,5.17,B,mid,0.75,5,0.65,15,0.85,-999,0.55,26,3,,1,2,3,,,,,,,110
26,Estimation3,4158.69,E8,4213.93,4215.44,5.08,B,mid,0.75,6,0.65,15,0.85,-999,0.55,26,1,2.0,1,2,3,,,,,,,0
26,Estimation3,4158.69,E9,4220.86,4222.37,5.36,B,mid,0.75,6,0.65,15,0.85,-999,0.55,27,3,,3,2,1,,,,,,,111
26,Estimation3,4158.69,E10,4228.07,4229.59,6.01,B,left,0.75,6,0.65,15,0.85,3,0.55,27,1,2.0,3,1,2,,,,,,,101
26,Estimation3,4158.69,E11,4235.93,4237.45,4.68,C,right,0.75,6,0.65,15,0.85,3,0.55,28,2,1.0,1,2,3,,,,,,,11
26,Estimation3,4158.69,E12,4242.48,4244.0,5.65,B,mid,0.75,6,0.65,15,0.85,3,0.55,28,1,2.0,3,2,1,,,,,,,0
26,3,4258.05,1,4258.13,4259.64,8.88,B,right,0.78,6,0.65,15,0.76,5,0.63,14,-999,32.0,1,3,2,3.0,0.0,0.0,0.0,-3.0,-1.0,100
26,3,4258.05,2,4268.87,4270.39,6.5,B,left,0.72,5,0.65,15,0.7,4,0.63,14,-999,31.0,3,1,2,-3.0,-1.0,0.0,0.0,3.0,-1.0,100
26,3,4258.05,3,4277.22,4278.74,8.37,B,left,0.75,6,0.65,15,0.73,5,0.63,14,-999,31.0,2,1,3,0.0,0.0,0.0,0.0,0.0,0.0,110
26,3,4258.05,4,4287.45,4288.97,6.63,B,mid,0.72,5,0.62,14,0.88,3,0.58,28,-999,2.0,3,2,1,-3.0,-1.0,-3.0,-1.0,3.0,0.0,111
26,3,4258.05,5,4295.95,4297.47,9.52,B,right,0.72,5,0.65,14,0.7,4,0.63,13,-999,31.0,2,3,1,-3.0,-1.0,0.0,-1.0,3.0,-1.0,111
26,3,4258.05,6,4307.33,4308.84,4.12,B,left,0.78,5,0.68,15,0.76,4,0.66,14,-999,31.0,2,1,3,3.0,-1.0,3.0,0.0,0.0,0.0,111
26,3,4258.05,7,4313.31,4314.83,7.14,B,right,0.75,6,0.65,14,0.73,5,0.63,13,-999,31.0,2,3,1,0.0,0.0,0.0,-1.0,-3.0,-1.0,111
26,3,4258.05,8,4322.31,4323.82,5.83,C,right,0.32,31,0.48,20,0.85,11,-999.0,-999,-999,99.0,1,2,3,0.0,0.0,0.0,0.0,0.0,0.0,11
26,3,4258.05,9,4329.99,4331.5,4.92,B,left,0.72,6,0.62,14,0.7,5,0.6,13,-999,32.0,3,1,2,-3.0,0.0,-3.0,-1.0,0.0,0.0,111
26,3,4258.05,10,4336.77,4338.29,8.24,C,mid,0.31,32,0.38,26,0.85,11,-999.0,-999,-999,99.0,1,3,2,0.0,0.0,0.0,0.0,0.0,0.0,1
26,3,4258.05,11,4346.87,4348.38,4.89,B,left,0.72,6,0.62,15,0.7,5,0.6,14,-999,32.0,3,1,2,-3.0,0.0,-3.0,0.0,3.0,-1.0,10
26,3,4258.05,12,4353.61,4355.13,10.93,B,mid,0.72,6,0.65,15,0.82,2,0.52,27,-999,2.0,1,2,3,-3.0,0.0,0.0,0.0,-3.0,-1.0,11
26,3,4258.05,13,4366.39,4367.91,5.19,B,right,0.78,6,0.68,15,0.76,5,0.66,14,-999,31.0,1,3,2,3.0,0.0,3.0,0.0,0.0,0.0,10
26,3,4258.05,14,4373.44,4374.96,7.66,B,left,0.78,5,0.65,15,0.76,4,0.63,14,-999,32.0,3,1,2,3.0,-1.0,0.0,0.0,-3.0,-1.0,1
26,3,4258.05,15,4382.95,4384.47,3.21,B,right,0.75,5,0.65,15,0.73,4,0.63,14,-999,31.0,2,3,1,0.0,-1.0,0.0,0.0,3.0,-1.0,101
26,3,4258.05,16,4388.02,4389.54,4.76,B,mid,0.72,6,0.65,15,0.82,2,0.52,27,-999,1.0,3,2,1,-3.0,0.0,0.0,0.0,-3.0,-1.0,110
26,3,4258.05,17,4394.63,4396.15,6.66,C,left,0.32,31,0.6,16,0.78,12,-999.0,-999,-999,99.0,3,2,1,0.0,0.0,0.0,0.0,0.0,0.0,111
26,3,4258.05,18,4403.15,4404.66,8.04,B,mid,0.78,5,0.68,15,0.85,2,0.55,27,-999,1.0,1,2,3,3.0,-1.0,3.0,0.0,0.0,-1.0,1
26,3,4258.05,19,4413.04,4414.56,4.72,B,mid,0.75,6,0.65,15,0.73,5,0.63,14,-999,31.0,1,2,3,0.0,0.0,0.0,0.0,0.0,-1.0,0
26,3,4258.05,20,4419.63,4421.14,7.75,B,right,0.72,5,0.65,15,0.85,3,0.55,28,-999,2.0,2,3,1,-3.0,-1.0,0.0,0.0,0.0,0.0,111
26,3,4258.05,21,4429.24,4430.76,5.91,C,mid,0.28,35,0.67,14,0.78,12,-999.0,-999,-999,99.0,1,3,2,0.0,0.0,0.0,0.0,0.0,0.0,11
26,3,4258.05,22,4437.0,4438.52,11.61,B,left,0.75,5,0.62,15,0.88,3,0.58,28,-999,1.0,2,1,3,0.0,-1.0,-3.0,0.0,3.0,0.0,11
26,3,4258.05,23,4450.47,4451.98,10.94,B,mid,0.72,6,0.62,14,0.85,3,0.55,28,-999,2.0,1,2,3,-3.0,0.0,-3.0,-1.0,0.0,0.0,110
26,3,4258.05,24,4463.26,4464.78,6.29,C,mid,0.75,6,0.62,14,0.88,3,0.58,28,-999,2.0,3,1,2,0.0,0.0,-3.0,-1.0,3.0,0.0,10
26,3,4258.05,25,4471.41,4472.92,10.58,B,left,0.78,6,0.62,14,0.85,3,0.55,28,-999,2.0,2,1,3,3.0,0.0,-3.0,-1.0,0.0,0.0,100
26,3,4258.05,26,4483.84,4485.35,10.88,B,mid,0.75,6,0.65,15,0.85,3,0.55,28,-999,1.0,1,2,3,0.0,0.0,0.0,0.0,0.0,0.0,11
26,3,4258.05,27,4496.58,4498.1,6.53,B,right,0.78,6,0.68,15,0.88,2,0.58,27,-999,1.0,1,3,2,3.0,0.0,3.0,0.0,3.0,-1.0,111
26,3,4258.05,28,4504.97,4506.48,5.19,B,right,0.72,5,0.68,15,0.88,3,0.58,28,-999,2.0,2,3,1,-3.0,-1.0,3.0,0.0,3.0,0.0,11
26,3,4258.05,29,4512.01,4513.53,3.53,B,right,0.72,5,0.68,14,0.7,4,0.66,13,-999,31.0,2,3,1,-3.0,-1.0,3.0,-1.0,-3.0,0.0,10
26,3,4258.05,30,4517.41,4518.93,8.13,A,right,0.75,6,0.62,15,0.88,2,0.58,27,-999,1.0,3,2,1,0.0,0.0,-3.0,0.0,3.0,-1.0,101
26,3,4258.05,31,4527.39,4528.91,6.51,B,mid,0.75,6,0.65,14,0.85,2,0.55,27,-999,2.0,3,2,1,0.0,0.0,0.0,-1.0,0.0,-1.0,111
26,3,4258.05,32,4535.76,4537.27,7.59,B,left,0.78,6,0.65,14,0.82,2,0.52,27,-999,2.0,3,1,2,3.0,0.0,0.0,-1.0,-3.0,-1.0,10
26,3,4258.05,33,4545.2,4546.72,6.21,B,left,0.72,6,0.65,15,0.7,5,0.63,14,-999,31.0,2,1,3,-3.0,0.0,0.0,0.0,-3.0,-1.0,110
26,3,4258.05,34,4553.27,4554.78,6.62,B,right,0.72,5,0.62,15,0.7,4,0.6,14,-999,32.0,1,3,2,-3.0,-1.0,-3.0,0.0,-3.0,-1.0,0
26,3,4258.05,35,4561.75,4563.26,5.57,C,left,0.29,34,0.42,23,0.72,13,-999.0,-999,-999,99.0,2,3,1,0.0,0.0,0.0,0.0,0.0,0.0,11
26,3,4258.05,36,4569.18,4570.69,3.48,C,right,0.19,52,0.59,16,0.81,12,-999.0,-999,-999,99.0,1,2,3,0.0,0.0,0.0,0.0,0.0,0.0,11
26,3,4258.05,37,4574.51,4576.03,3.92,B,left,0.72,6,0.68,15,0.82,2,0.52,27,-999,1.0,3,1,2,-3.0,0.0,3.0,0.0,-3.0,-1.0,110
26,3,4258.05,38,4588.84,4590.35,4.58,B,left,0.75,5,0.65,14,0.73,4,0.63,13,-999,32.0,3,1,2,0.0,-1.0,0.0,-1.0,3.0,0.0,10
26,3,4258.05,39,4595.27,4596.79,6.23,B,right,0.75,5,0.68,14,0.73,4,0.66,13,-999,32.0,1,3,2,0.0,-1.0,3.0,-1.0,0.0,0.0,1
26,3,4258.05,40,4603.35,4604.87,3.77,B,left,0.75,6,0.65,15,0.82,2,0.52,27,-999,1.0,2,1,3,0.0,0.0,0.0,0.0,-3.0,-1.0,11
26,3,4258.05,41,4608.98,4610.5,3.63,B,right,0.78,5,0.68,14,0.76,4,0.66,13,-999,32.0,1,3,2,3.0,-1.0,3.0,-1.0,3.0,-1.0,110
26,3,4258.05,42,4614.48,4616.0,4.9,B,left,0.78,6,0.65,14,0.82,3,0.52,28,-999,1.0,2,1,3,3.0,0.0,0.0,-1.0,-3.0,0.0,100
26,3,4258.05,43,4621.24,4622.76,9.24,A,mid,0.78,5,0.62,15,0.76,4,0.6,14,-999,31.0,2,3,1,3.0,-1.0,-3.0,0.0,0.0,0.0,10
26,3,4258.05,44,4632.34,4633.86,3.91,C,left,0.27,37,0.47,21,0.86,11,-999.0,-999,-999,99.0,3,2,1,0.0,0.0,0.0,0.0,0.0,0.0,1
26,3,4258.05,45,4638.11,4639.62,4.85,C,right,0.27,37,0.61,16,0.89,11,-999.0,-999,-999,99.0,2,1,3,0.0,0.0,0.0,0.0,0.0,0.0,10
26,3,4258.05,46,4644.82,4646.34,10.14,B,left,0.72,5,0.68,14,0.85,3,0.55,28,-999,2.0,3,1,2,-3.0,-1.0,3.0,-1.0,0.0,0.0,100
26,3,4258.05,47,4656.82,4658.33,11.27,B,mid,0.75,6,0.65,14,0.73,5,0.63,13,-999,31.0,1,2,3,0.0,0.0,0.0,-1.0,0.0,0.0,100
26,3,4258.05,48,4669.94,4671.46,4.04,B,right,0.72,6,0.62,15,0.7,5,0.6,14,-999,32.0,2,3,1,-3.0,0.0,-3.0,0.0,0.0,0.0,0
26,3,4258.05,49,4675.84,4677.36,7.23,A,right,0.78,6,0.62,14,0.85,2,0.55,27,-999,1.0,3,2,1,3.0,0.0,-3.0,-1.0,0.0,-1.0,11
26,3,4258.05,50,4684.92,4686.44,4.14,C,mid,0.16,62,0.46,21,0.87,11,-999.0,-999,-999,99.0,1,3,2,0.0,0.0,0.0,0.0,0.0,0.0,0
26,3,4258.05,51,4690.92,4692.44,7.7,A,right,0.72,6,0.62,15,0.7,5,0.6,14,-999,31.0,3,1,2,-3.0,0.0,-3.0,0.0,0.0,-1.0,110
26,3,4258.05,52,4700.49,4702.0,3.51,B,right,0.72,5,0.65,15,0.7,4,0.63,14,-999,31.0,1,3,2,-3.0,-1.0,0.0,0.0,3.0,-1.0,100
26,3,4258.05,53,4705.85,4707.37,8.0,C,mid,0.75,5,0.62,15,0.88,2,0.58,27,-999,2.0,1,3,2,0.0,-1.0,-3.0,0.0,3.0,-1.0,111
26,3,4258.05,54,4715.71,4717.23,4.52,B,right,0.78,5,0.68,15,0.88,3,0.58,28,-999,1.0,2,3,1,3.0,-1.0,3.0,0.0,3.0,0.0,111
26,3,4258.05,55,4722.08,4723.59,5.5,A,right,0.78,5,0.62,15,0.85,2,0.55,27,-999,1.0,3,2,1,3.0,-1.0,-3.0,0.0,0.0,-1.0,101
26,3,4258.05,56,4729.44,4730.96,4.21,B,mid,0.72,6,0.68,15,0.82,3,0.52,28,-999,2.0,3,2,1,-3.0,0.0,3.0,0.0,-3.0,0.0,1
26,3,4258.05,57,4735.54,4737.06,6.0,B,left,0.72,6,0.68,15,0.82,2,0.52,27,-999,1.0,3,1,2,-3.0,0.0,3.0,0.0,-3.0,-1.0,100
26,3,4258.05,58,4743.4,4744.92,7.28,B,left,0.78,6,0.68,15,0.82,3,0.52,28,-999,1.0,2,1,3,3.0,0.0,3.0,0.0,-3.0,0.0,0
26,3,4258.05,59,4752.54,4754.05,6.09,C,left,0.72,5,0.65,15,0.88,2,0.58,27,-999,2.0,2,3,1,-3.0,-1.0,0.0,0.0,3.0,-1.0,111
26,3,4258.05,60,4760.48,4762.0,4.68,C,left,0.19,52,0.56,17,0.8,12,-999.0,-999,-999,99.0,3,2,1,0.0,0.0,0.0,0.0,0.0,0.0,111
26,3,4258.05,61,4767.01,4768.53,8.81,A,mid,0.78,5,0.62,14,0.76,4,0.6,13,-999,32.0,2,1,3,3.0,-1.0,-3.0,-1.0,0.0,-1.0,101
26,3,4258.05,62,4777.68,4779.19,16.41,C,left,0.72,6,0.62,14,0.85,3,0.55,28,-999,2.0,2,3,1,-3.0,0.0,-3.0,-1.0,0.0,0.0,101
26,3,4258.05,63,4795.94,4797.45,5.53,B,mid,0.75,5,0.68,14,0.85,2,0.55,27,-999,2.0,1,2,3,0.0,-1.0,3.0,-1.0,0.0,-1.0,111
26,3,4258.05,64,4803.32,4804.84,4.5,B,left,0.72,6,0.68,14,0.7,5,0.66,13,-999,32.0,3,1,2,-3.0,0.0,3.0,-1.0,0.0,-1.0,100
26,3,4258.05,65,4809.68,4811.2,2.57,B,right,0.75,5,0.68,14,0.73,4,0.66,13,-999,31.0,1,3,2,0.0,-1.0,3.0,-1.0,0.0,-1.0,101
26,3,4258.05,66,4814.11,4815.63,5.19,B,right,0.75,5,0.68,15,0.88,3,0.58,28,-999,1.0,1,3,2,0.0,-1.0,3.0,0.0,3.0,0.0,100
26,3,4258.05,67,4821.16,4822.68,5.09,A,mid,0.78,5,0.62,15,0.76,4,0.6,14,-999,32.0,2,3,1,3.0,-1.0,-3.0,0.0,-3.0,-1.0,101
26,3,4258.05,68,4828.11,4829.63,8.37,A,left,0.78,6,0.62,14,0.76,5,0.6,13,-999,31.0,1,3,2,3.0,0.0,-3.0,-1.0,-3.0,0.0,111
26,3,4258.05,69,4838.34,4839.86,5.46,B,right,0.72,6,0.65,14,0.7,5,0.63,13,-999,32.0,2,3,1,-3.0,0.0,0.0,-1.0,3.0,0.0,10
26,3,4258.05,70,4845.65,4847.17,6.46,A,right,0.78,6,0.62,15,0.76,5,0.6,14,-999,32.0,3,2,1,3.0,0.0,-3.0,0.0,3.0,0.0,0
26,3,4258.05,71,4853.97,4855.48,5.76,B,right,0.75,5,0.62,15,0.73,4,0.6,14,-999,32.0,2,3,1,0.0,-1.0,-3.0,0.0,-3.0,0.0,111
26,3,4258.05,72,4861.58,4863.1,4.71,C,left,0.24,41,0.37,27,0.76,13,-999.0,-999,-999,99.0,2,3,1,0.0,0.0,0.0,0.0,0.0,0.0,10
26,3,4258.05,73,4868.15,4869.66,7.15,C,mid,0.72,6,0.68,14,0.88,3,0.58,28,-999,2.0,1,3,2,-3.0,0.0,3.0,-1.0,3.0,0.0,11
26,3,4258.05,74,4877.16,4878.68,8.46,A,left,0.78,6,0.65,14,0.82,2,0.52,27,-999,1.0,1,3,2,3.0,0.0,0.0,-1.0,-3.0,-1.0,0
26,3,4258.05,75,4887.47,4888.99,17.81,B,left,0.78,6,0.65,15,0.76,5,0.63,14,-999,32.0,2,1,3,3.0,0.0,0.0,0.0,0.0,0.0,110
