subject,block,block_onset,trial,fixation_cross_onset,trial_onset,rt,choice,key,pA,mA,pB,mB,pCA,mCA,pCB,mCB,missing,condition,position_A,position_B,position_C,noise_Ap,noise_Am,noise_Bp,noise_Bm,noise_Cp,noise_Cm,attribute_positions
6,Practice,1186.86,P1,1186.89,1188.41,38.33,C,mid,0.78,7,0.62,17,0.85,3,0.55,24,-999,2.0,3,1,2,3.0,-2.0,-3.0,2.0,0.0,-1.0,1
6,Practice,1186.86,P2,1227.09,1228.61,20.79,C,right,0.72,7,0.62,16,0.88,5,0.58,26,-999,2.0,1,2,3,-3.0,-2.0,-3.0,1.0,3.0,1.0,10
6,Practice,1186.86,P3,1249.75,1251.27,19.75,A,mid,0.75,11,0.68,13,0.85,4,0.55,25,-999,1.0,2,3,1,0.0,2.0,3.0,-2.0,0.0,0.0,110
6,Practice,1186.86,P4,1271.36,1272.88,16.3,B,left,0.75,9,0.65,15,0.88,5,0.58,26,-999,1.0,3,1,2,0.0,0.0,0.0,0.0,3.0,1.0,100
6,Practice,1186.86,P5,1289.52,1291.04,33.3,A,left,0.72,11,0.62,13,0.85,6,0.55,27,-999,1.0,1,3,2,-3.0,2.0,-3.0,-2.0,0.0,2.0,101
6,Practice,1186.86,P6,1324.68,1326.2,28.95,C,left,0.78,7,0.62,13,0.82,6,0.52,27,-999,2.0,2,3,1,3.0,-2.0,-3.0,-2.0,-3.0,2.0,110
6,Practice,1186.86,P7,1355.52,1357.04,15.12,C,right,0.75,7,0.65,17,0.85,5,0.55,26,-999,2.0,2,1,3,0.0,-2.0,0.0,2.0,0.0,1.0,111
6,Practice,1186.86,P8,1372.5,1374.01,34.99,C,mid,0.72,8,0.68,15,0.82,6,0.52,27,-999,2.0,3,1,2,-3.0,-1.0,3.0,0.0,-3.0,2.0,110
6,Practice,1186.86,P9,1409.35,1410.87,60.03,B,left,0.78,8,0.62,16,0.88,5,0.58,26,-999,1.0,3,1,2,3.0,-1.0,-3.0,1.0,3.0,1.0,1
6,Practice,1186.86,P10,1471.25,1472.76,35.2,B,mid,0.75,10,0.65,16,0.82,2,0.52,23,-999,2.0,1,2,3,0.0,1.0,0.0,1.0,-3.0,-2.0,101
6,Practice,1186.86,P11,1508.3,1509.82,21.62,B,right,0.72,8,0.65,15,0.85,5,0.55,26,-999,2.0,2,3,1,-3.0,-1.0,0.0,0.0,0.0,1.0,0
6,Practice,1186.86,P12,1531.78,1533.3,23.22,B,right,0.72,8,0.68,15,0.85,5,0.55,26,-999,1.0,2,3,1,-3.0,-1.0,3.0,0.0,0.0,1.0,101
6,Practice,1186.86,P13,1556.85,1558.37,26.46,B,left,0.78,11,0.68,16,0.88,5,0.58,26,-999,1.0,2,1,3,3.0,2.0,3.0,1.0,3.0,1.0,111
6,Practice,1186.86,P14,1585.16,1586.68,26.13,B,mid,0.72,11,0.62,17,0.82,3,0.52,24,-999,2.0,3,2,1,-3.0,2.0,-3.0,2.0,-3.0,-1.0,0
6,Practice,1186.86,P15,1613.15,1614.67,37.53,C,left,0.78,7,0.68,14,0.88,5,0.58,26,-999,2.0,2,3,1,3.0,-2.0,3.0,-1.0,3.0,1.0,10
6,Practice,1186.86,P16,1652.54,1654.06,17.6,C,right,0.78,7,0.65,13,0.82,2,0.52,23,-999,2.0,2,1,3,3.0,-2.0,0.0,-2.0,-3.0,-2.0,1
6,Practice,1186.86,P17,1672.0,1673.52,29.09,C,left,0.72,10,0.65,13,0.82,5,0.52,26,-999,2.0,3,2,1,-3.0,1.0,0.0,-2.0,-3.0,1.0,110
6,Practice,1186.86,P18,1702.94,1704.46,31.17,C,mid,0.78,7,0.68,13,0.88,2,0.58,23,-999,2.0,3,1,2,3.0,-2.0,3.0,-2.0,3.0,-2.0,10
6,Practice,1186.86,P19,1735.96,1737.48,28.96,B,left,0.78,11,0.62,15,0.85,4,0.55,25,-999,1.0,3,1,2,3.0,2.0,-3.0,0.0,0.0,0.0,110
6,Practice,1186.86,P20,1766.77,1768.29,42.22,B,right,0.72,7,0.65,14,0.88,4,0.58,25,-999,1.0,1,3,2,-3.0,-2.0,0.0,-1.0,3.0,0.0,11
6,Practice,1186.86,P21,1810.84,1812.36,18.63,B,left,0.78,9,0.65,16,0.85,2,0.55,23,-999,1.0,3,1,2,3.0,0.0,0.0,1.0,0.0,-2.0,0
6,Practice,1186.86,P22,1831.33,1832.85,13.02,B,right,0.72,9,0.62,15,0.85,2,0.55,23,-999,1.0,1,3,2,-3.0,0.0,-3.0,0.0,0.0,-2.0,10
6,Practice,1186.86,P23,1846.21,1847.73,4.97,B,left,0.72,7,0.65,13,0.88,3,0.58,24,-999,1.0,3,1,2,-3.0,-2.0,0.0,-2.0,3.0,-1.0,100
6,Practice,1186.86,P24,1853.04,1854.56,17.25,C,right,0.78,7,0.65,13,0.82,5,0.52,26,-999,2.0,2,1,3,3.0,-2.0,0.0,-2.0,-3.0,1.0,10
6,Practice,1186.86,P25,1872.15,1873.67,21.88,C,left,0.78,10,0.68,13,0.85,4,0.55,25,-999,1.0,2,3,1,3.0,1.0,3.0,-2.0,0.0,0.0,111
6,Estimation1,2133.37,E1,2133.45,2134.97,17.23,A,mid,0.75,11,0.65,15,0.85,-999,0.55,20,3,,2,1,3,,,,,,,11
6,Estimation1,2133.37,E2,2152.54,2154.06,36.42,B,right,0.75,8,0.65,15,0.85,-999,0.55,20,1,2.0,1,3,2,,,,,,,101
6,Estimation1,2133.37,E3,2190.83,2192.35,28.53,B,left,0.75,8,0.65,15,0.85,-999,0.55,28,3,,3,1,2,,,,,,,100
6,Estimation1,2133.37,E4,2221.22,2222.74,29.1,C,left,0.75,10,0.65,15,0.85,-999,0.55,28,1,2.0,2,3,1,,,,,,,101
6,Estimation1,2133.37,E5,2252.18,2253.7,18.51,B,mid,0.75,10,0.65,15,0.85,-999,0.55,24,3,,1,2,3,,,,,,,1
6,Estimation1,2133.37,E6,2272.54,2274.06,5.65,C,right,0.75,11,0.65,15,0.85,-999,0.55,24,1,2.0,2,1,3,,,,,,,101
6,Estimation1,2133.37,E7,2280.05,2281.57,21.51,A,left,0.75,11,0.65,15,0.85,-999,0.55,22,3,,1,2,3,,,,,,,100
6,Estimation1,2133.37,E8,2303.43,2304.94,19.51,C,left,0.75,11,0.65,15,0.85,6,0.55,22,1,2.0,2,3,1,,,,,,,100
6,Estimation1,2133.37,E9,2324.81,2326.32,4.52,A,right,0.75,11,0.65,15,0.85,6,0.55,21,2,1.0,3,2,1,,,,,,,100
6,Estimation1,2133.37,E10,2331.19,2332.7,11.75,B,right,0.75,11,0.65,15,0.85,8,0.55,21,1,2.0,1,3,2,,,,,,,0
6,Estimation1,2133.37,E11,2344.8,2346.32,12.95,A,left,0.75,11,0.65,15,0.85,8,0.55,22,2,1.0,1,2,3,,,,,,,101
6,Estimation1,2133.37,E12,2359.61,2361.13,9.23,C,right,0.75,11,0.65,15,0.85,9,0.55,22,1,2.0,2,1,3,,,,,,,110
6,Estimation1,2133.37,E13,2370.71,2372.22,18.38,C,right,0.75,11,0.65,15,0.85,9,0.55,22,2,1.0,2,1,3,,,,,,,11
6,1,2406.23,1,2406.3,2407.81,52.57,C,mid,0.31,32,0.38,26,0.85,11,-999.0,-999,-999,99.0,1,3,2,0.0,0.0,0.0,0.0,0.0,0.0,0
6,1,2406.23,2,2460.73,2462.24,24.83,B,right,0.78,11,0.68,15,0.82,9,0.52,22,-999,1.0,1,3,2,3.0,0.0,3.0,0.0,-3.0,0.0,0
6,1,2406.23,3,2487.42,2488.94,32.3,A,mid,0.72,11,0.62,14,0.7,10,0.6,13,-999,32.0,2,1,3,-3.0,0.0,-3.0,-1.0,0.0,0.0,111
6,1,2406.23,4,2521.57,2523.09,33.53,B,right,0.75,10,0.68,14,0.73,9,0.66,13,-999,31.0,1,3,2,0.0,-1.0,3.0,-1.0,0.0,-1.0,110
6,1,2406.23,5,2556.96,2558.48,60.39,A,left,0.27,37,0.61,16,0.89,11,-999.0,-999,-999,99.0,1,3,2,0.0,0.0,0.0,0.0,0.0,0.0,111
6,1,2406.23,6,2619.21,2620.73,42.6,B,mid,0.32,31,0.6,16,0.78,12,-999.0,-999,-999,99.0,3,2,1,0.0,0.0,0.0,0.0,0.0,0.0,111
6,1,2406.23,7,2663.66,2665.18,52.19,B,right,0.78,10,0.68,15,0.88,9,0.58,22,-999,1.0,1,3,2,3.0,-1.0,3.0,0.0,3.0,0.0,101
6,1,2406.23,8,2717.71,2719.23,22.3,B,mid,0.72,11,0.62,15,0.7,10,0.6,14,-999,31.0,1,2,3,-3.0,0.0,-3.0,0.0,0.0,-1.0,101
6,1,2406.23,9,2741.87,2743.39,37.23,B,mid,0.75,11,0.65,14,0.73,10,0.63,13,-999,31.0,3,2,1,0.0,0.0,0.0,-1.0,0.0,0.0,1
6,1,2406.23,10,2780.96,2782.47,44.04,B,right,0.75,10,0.62,15,0.88,9,0.58,22,-999,1.0,1,3,2,0.0,-1.0,-3.0,0.0,3.0,0.0,100
6,1,2406.23,11,2826.86,2828.38,21.5,B,right,0.78,11,0.68,15,0.76,10,0.66,14,-999,31.0,2,3,1,3.0,0.0,3.0,0.0,0.0,0.0,101
6,1,2406.23,12,2850.22,2851.73,58.07,B,mid,0.27,37,0.47,21,0.86,11,-999.0,-999,-999,99.0,3,2,1,0.0,0.0,0.0,0.0,0.0,0.0,111
6,1,2406.23,13,2910.15,2911.66,44.39,A,left,0.78,11,0.65,15,0.76,10,0.63,14,-999,32.0,1,3,2,3.0,0.0,0.0,0.0,0.0,0.0,101
6,1,2406.23,14,2956.4,2957.92,50.64,B,left,0.72,11,0.65,14,0.7,10,0.63,13,-999,32.0,3,1,2,-3.0,0.0,0.0,-1.0,3.0,0.0,0
6,1,2406.23,15,3008.9,3010.42,12.37,B,left,0.72,11,0.68,15,0.82,8,0.52,21,-999,1.0,3,1,2,-3.0,0.0,3.0,0.0,-3.0,-1.0,0
6,1,2406.23,16,3023.13,3024.65,25.72,B,left,0.72,11,0.68,15,0.82,9,0.52,22,-999,2.0,3,1,2,-3.0,0.0,3.0,0.0,-3.0,0.0,111
6,1,2406.23,17,3050.7,3052.22,13.83,C,mid,0.72,10,0.65,15,0.88,8,0.58,21,-999,2.0,3,1,2,-3.0,-1.0,0.0,0.0,3.0,-1.0,10
6,1,2406.23,18,3066.4,3067.91,12.51,B,mid,0.72,10,0.62,15,0.7,9,0.6,14,-999,32.0,3,2,1,-3.0,-1.0,-3.0,0.0,-3.0,-1.0,110
6,1,2406.23,19,3080.76,3082.28,16.47,B,left,0.78,10,0.68,15,0.85,8,0.55,21,-999,1.0,2,1,3,3.0,-1.0,3.0,0.0,0.0,-1.0,0
6,1,2406.23,20,3099.09,3100.6,13.88,B,left,0.72,11,0.65,15,0.7,10,0.63,14,-999,31.0,2,1,3,-3.0,0.0,0.0,0.0,-3.0,-1.0,11
6,1,2406.23,21,3114.83,3116.35,24.77,A,mid,0.78,11,0.65,14,0.82,8,0.52,21,-999,1.0,2,1,3,3.0,0.0,0.0,-1.0,-3.0,-1.0,101
6,1,2406.23,22,3141.46,3142.97,40.6,B,left,0.75,11,0.65,15,0.85,9,0.55,22,-999,1.0,2,1,3,0.0,0.0,0.0,0.0,0.0,0.0,1
6,1,2406.23,23,3183.91,3185.43,17.34,B,right,0.72,11,0.68,15,0.82,8,0.52,21,-999,1.0,2,3,1,-3.0,0.0,3.0,0.0,-3.0,-1.0,11
6,1,2406.23,24,3203.1,3204.62,40.64,B,mid,0.75,11,0.65,15,0.82,8,0.52,21,-999,1.0,1,2,3,0.0,0.0,0.0,0.0,-3.0,-1.0,100
6,1,2406.23,25,3245.61,3247.12,26.31,B,right,0.72,11,0.62,15,0.7,10,0.6,14,-999,32.0,1,3,2,-3.0,0.0,-3.0,0.0,0.0,0.0,11
6,1,2406.23,26,3273.78,3275.3,24.43,B,mid,0.75,11,0.65,15,0.73,10,0.63,14,-999,31.0,1,2,3,0.0,0.0,0.0,0.0,0.0,-1.0,101
6,1,2406.23,27,3300.07,3301.59,14.25,C,right,0.72,10,0.62,14,0.88,9,0.58,22,-999,2.0,1,2,3,-3.0,-1.0,-3.0,-1.0,3.0,0.0,111
6,1,2406.23,28,3316.18,3317.7,45.21,C,right,0.78,11,0.65,14,0.82,8,0.52,21,-999,2.0,2,1,3,3.0,0.0,0.0,-1.0,-3.0,-1.0,101
6,1,2406.23,29,3363.25,3364.77,9.67,B,right,0.75,11,0.62,15,0.88,8,0.58,21,-999,1.0,2,3,1,0.0,0.0,-3.0,0.0,3.0,-1.0,100
6,1,2406.23,30,3374.78,3376.3,7.38,B,left,0.72,11,0.65,15,0.82,8,0.52,21,-999,1.0,2,1,3,-3.0,0.0,0.0,0.0,-3.0,-1.0,0
6,1,2406.23,31,3384.03,3385.54,18.98,B,right,0.72,10,0.68,15,0.88,9,0.58,22,-999,2.0,2,3,1,-3.0,-1.0,3.0,0.0,3.0,0.0,110
6,1,2406.23,32,3404.85,3406.37,68.76,A,left,0.19,52,0.59,16,0.81,12,-999.0,-999,-999,99.0,1,2,3,0.0,0.0,0.0,0.0,0.0,0.0,10
6,1,2406.23,33,3475.48,3477.0,26.84,B,right,0.75,10,0.65,14,0.73,9,0.63,13,-999,32.0,1,3,2,0.0,-1.0,0.0,-1.0,3.0,0.0,100
6,1,2406.23,34,3504.19,3505.71,13.37,C,mid,0.75,11,0.62,14,0.88,9,0.58,22,-999,2.0,3,1,2,0.0,0.0,-3.0,-1.0,3.0,0.0,110
6,1,2406.23,35,3519.42,3520.93,15.82,B,right,0.72,11,0.65,15,0.82,8,0.52,21,-999,2.0,2,3,1,-3.0,0.0,0.0,0.0,-3.0,-1.0,0
6,1,2406.23,36,3537.1,3538.61,58.23,A,mid,0.29,34,0.42,23,0.72,13,-999.0,-999,-999,99.0,2,1,3,0.0,0.0,0.0,0.0,0.0,0.0,111
6,1,2406.23,37,3597.18,3598.69,16.0,B,mid,0.78,10,0.68,15,0.76,9,0.66,14,-999,31.0,1,2,3,3.0,-1.0,3.0,0.0,0.0,0.0,100
6,1,2406.23,38,3729.52,3731.03,10.8,B,mid,0.72,11,0.62,15,0.7,10,0.6,14,-999,32.0,1,2,3,-3.0,0.0,-3.0,0.0,3.0,-1.0,110
6,1,2406.23,39,3742.18,3743.7,39.62,B,mid,0.16,62,0.46,21,0.87,11,-999.0,-999,-999,99.0,1,2,3,0.0,0.0,0.0,0.0,0.0,0.0,11
6,1,2406.23,40,3783.65,3785.17,25.62,A,right,0.78,11,0.65,14,0.82,9,0.52,22,-999,1.0,3,1,2,3.0,0.0,0.0,-1.0,-3.0,0.0,110
6,1,2406.23,41,3811.12,3812.64,13.43,C,right,0.75,10,0.68,14,0.85,8,0.55,21,-999,2.0,2,1,3,0.0,-1.0,3.0,-1.0,0.0,-1.0,110
6,1,2406.23,42,3826.42,3827.93,20.75,C,mid,0.72,11,0.68,14,0.88,9,0.58,22,-999,2.0,1,3,2,-3.0,0.0,3.0,-1.0,3.0,0.0,1
6,1,2406.23,43,3849.03,3850.54,8.4,B,mid,0.75,10,0.62,15,0.73,9,0.6,14,-999,32.0,1,2,3,0.0,-1.0,-3.0,0.0,-3.0,0.0,110
6,1,2406.23,44,3859.29,3860.81,10.14,C,mid,0.72,11,0.62,14,0.85,9,0.55,22,-999,2.0,3,1,2,-3.0,0.0,-3.0,-1.0,0.0,0.0,10
6,1,2406.23,45,3871.29,3872.8,16.06,B,mid,0.78,11,0.68,15,0.88,8,0.58,21,-999,1.0,3,2,1,3.0,0.0,3.0,0.0,3.0,-1.0,1
6,1,2406.23,46,3889.21,3890.73,17.45,A,mid,0.78,11,0.62,14,0.85,8,0.55,21,-999,1.0,2,1,3,3.0,0.0,-3.0,-1.0,0.0,-1.0,10
6,1,2406.23,47,3908.52,3910.04,19.56,B,right,0.78,10,0.68,14,0.76,9,0.66,13,-999,32.0,2,3,1,3.0,-1.0,3.0,-1.0,3.0,-1.0,11
6,1,2406.23,48,3929.93,3931.45,47.56,A,left,0.78,11,0.65,15,0.76,10,0.63,14,-999,32.0,1,2,3,3.0,0.0,0.0,0.0,-3.0,-1.0,10
6,1,2406.23,49,3979.35,3980.87,13.92,C,right,0.78,11,0.62,14,0.85,9,0.55,22,-999,2.0,1,2,3,3.0,0.0,-3.0,-1.0,0.0,0.0,11
6,1,2406.23,50,3995.13,3996.65,12.1,B,mid,0.72,10,0.65,14,0.7,9,0.63,13,-999,31.0,3,2,1,-3.0,-1.0,0.0,-1.0,3.0,-1.0,0
6,1,2406.23,51,4009.09,4010.61,23.61,C,right,0.72,10,0.68,14,0.85,9,0.55,22,-999,2.0,2,1,3,-3.0,-1.0,3.0,-1.0,0.0,0.0,1
6,1,2406.23,52,4034.55,4036.07,15.13,B,left,0.78,10,0.62,15,0.76,9,0.6,14,-999,31.0,2,1,3,3.0,-1.0,-3.0,0.0,0.0,0.0,10
6,1,2406.23,53,4051.55,4053.06,138.69,C,right,0.24,41,0.37,27,0.76,13,-999.0,-999,-999,99.0,1,2,3,0.0,0.0,0.0,0.0,0.0,0.0,0
6,1,2406.23,54,4192.08,4193.6,15.17,B,left,0.75,10,0.68,14,0.73,9,0.66,13,-999,32.0,2,1,3,0.0,-1.0,3.0,-1.0,0.0,0.0,100
6,1,2406.23,55,4209.11,4210.63,25.91,B,mid,0.78,10,0.62,15,0.85,8,0.55,21,-999,1.0,1,2,3,3.0,-1.0,-3.0,0.0,0.0,-1.0,0
6,1,2406.23,56,4236.87,4238.38,47.87,A,mid,0.32,31,0.48,20,0.85,11,-999.0,-999,-999,99.0,2,3,1,0.0,0.0,0.0,0.0,0.0,0.0,10
6,1,2406.23,57,4286.6,4288.12,15.97,B,mid,0.75,11,0.65,15,0.73,10,0.63,14,-999,31.0,1,2,3,0.0,0.0,0.0,0.0,0.0,0.0,101
6,1,2406.23,58,4304.43,4305.95,5.34,B,right,0.72,10,0.65,15,0.7,9,0.63,14,-999,31.0,1,3,2,-3.0,-1.0,0.0,0.0,3.0,-1.0,111
6,1,2406.23,59,4311.63,4313.14,11.21,C,right,0.75,11,0.65,14,0.85,8,0.55,21,-999,2.0,2,1,3,0.0,0.0,0.0,-1.0,0.0,-1.0,100
6,1,2406.23,60,4324.69,4326.21,12.55,A,right,0.78,11,0.62,15,0.76,10,0.6,14,-999,32.0,3,1,2,3.0,0.0,-3.0,0.0,3.0,0.0,110
6,1,2406.23,61,4339.1,4340.62,14.38,B,mid,0.75,10,0.65,15,0.73,9,0.63,14,-999,31.0,3,2,1,0.0,-1.0,0.0,0.0,3.0,-1.0,1
6,1,2406.23,62,4355.33,4356.85,44.99,B,left,0.75,11,0.65,14,0.73,10,0.63,13,-999,31.0,3,1,2,0.0,0.0,0.0,-1.0,-3.0,-1.0,111
6,1,2406.23,63,4402.18,4403.7,6.18,B,mid,0.75,10,0.68,15,0.88,9,0.58,22,-999,1.0,3,2,1,0.0,-1.0,3.0,0.0,3.0,0.0,0
6,1,2406.23,64,4410.21,4411.73,19.02,B,mid,0.78,10,0.62,15,0.76,9,0.6,14,-999,32.0,1,2,3,3.0,-1.0,-3.0,0.0,-3.0,-1.0,0
6,1,2406.23,65,4431.09,4432.61,8.12,B,right,0.78,10,0.62,14,0.76,9,0.6,13,-999,32.0,2,3,1,3.0,-1.0,-3.0,-1.0,0.0,-1.0,110
6,1,2406.23,66,4441.07,4442.58,3.33,B,left,0.72,10,0.65,15,0.7,9,0.63,14,-999,31.0,2,1,3,-3.0,-1.0,0.0,0.0,3.0,-1.0,101
6,1,2406.23,67,4446.25,4447.77,73.35,A,mid,0.28,35,0.67,14,0.78,12,-999.0,-999,-999,99.0,2,1,3,0.0,0.0,0.0,0.0,0.0,0.0,111
6,1,2406.23,68,4521.46,4522.98,6.48,B,right,0.72,11,0.68,14,0.7,10,0.66,13,-999,32.0,1,3,2,-3.0,0.0,3.0,-1.0,0.0,-1.0,10
6,1,2406.23,69,4529.79,4531.31,5.48,B,mid,0.72,10,0.68,14,0.7,9,0.66,13,-999,31.0,1,2,3,-3.0,-1.0,3.0,-1.0,-3.0,0.0,111
6,1,2406.23,70,4537.12,4538.64,4.04,B,left,0.78,10,0.65,15,0.76,9,0.63,14,-999,32.0,3,1,2,3.0,-1.0,0.0,0.0,-3.0,-1.0,111
6,1,2406.23,71,4543.02,4544.54,23.34,A,right,0.78,11,0.62,14,0.76,10,0.6,13,-999,31.0,3,2,1,3.0,0.0,-3.0,-1.0,-3.0,0.0,100
6,1,2406.23,72,4568.23,4569.74,10.58,C,mid,0.72,11,0.62,14,0.85,9,0.55,22,-999,2.0,3,1,2,-3.0,0.0,-3.0,-1.0,0.0,0.0,0
6,1,2406.23,73,4580.67,4582.19,15.25,C,mid,0.75,10,0.62,15,0.88,8,0.58,21,-999,2.0,1,3,2,0.0,-1.0,-3.0,0.0,3.0,-1.0,110
6,1,2406.23,74,4597.78,4599.3,72.23,A,right,0.19,52,0.56,17,0.8,12,-999.0,-999,-999,99.0,3,1,2,0.0,0.0,0.0,0.0,0.0,0.0,110
6,1,2406.23,75,4671.88,4673.39,14.06,C,right,0.72,10,0.65,15,0.85,9,0.55,22,-999,2.0,2,1,3,-3.0,-1.0,0.0,0.0,0.0,0.0,110
6,Estimation2,4756.65,E1,4756.72,4758.23,4.77,B,mid,0.75,11,0.65,15,0.85,-999,0.55,20,3,,3,2,1,,,,,,,110
6,Estimation2,4756.65,E2,4763.33,4764.85,5.37,C,left,0.75,12,0.65,15,0.85,-999,0.55,20,1,2.0,3,2,1,,,,,,,100
6,Estimation2,4756.65,E3,4770.56,4772.08,6.05,B,left,0.75,12,0.65,15,0.85,-999,0.55,18,3,,2,1,3,,,,,,,110
6,Estimation2,4756.65,E4,4778.48,4779.99,5.78,B,mid,0.75,13,0.65,15,0.85,-999,0.55,18,1,2.0,1,2,3,,,,,,,0
6,Estimation2,4756.65,E5,4786.12,4787.64,10.8,A,right,0.75,13,0.65,15,0.85,-999,0.55,19,3,,3,1,2,,,,,,,1
6,Estimation2,4756.65,E6,4798.79,4800.3,8.94,C,mid,0.75,13,0.65,15,0.85,7,0.55,19,1,2.0,1,3,2,,,,,,,1
6,Estimation2,4756.65,E7,4809.58,4811.1,4.22,A,left,0.75,13,0.65,15,0.85,7,0.55,19,2,1.0,1,3,2,,,,,,,0
6,Estimation2,4756.65,E8,4815.66,4817.18,17.81,C,right,0.75,13,0.65,15,0.85,9,0.55,19,1,2.0,1,2,3,,,,,,,0
6,Estimation2,4756.65,E9,4835.32,4836.84,2.52,A,right,0.75,13,0.65,15,0.85,9,0.55,19,2,1.0,3,1,2,,,,,,,101
6,Estimation2,4756.65,E10,4839.71,4841.22,3.81,C,mid,0.75,13,0.65,15,0.85,10,0.55,19,1,2.0,3,1,2,,,,,,,10
6,Estimation2,4756.65,E11,4845.39,4846.9,4.18,A,right,0.75,13,0.65,15,0.85,10,0.55,19,2,1.0,3,2,1,,,,,,,110
6,Estimation2,4756.65,E12,4851.42,4852.94,2.62,C,mid,0.75,13,0.65,15,0.85,11,0.55,19,1,2.0,3,1,2,,,,,,,110
6,Estimation2,4756.65,E13,4855.9,4857.42,3.03,A,left,0.75,13,0.65,15,0.85,11,0.55,19,2,1.0,1,2,3,,,,,,,101
6,2,4863.32,1,4863.38,4864.9,18.42,A,right,0.78,13,0.68,15,0.76,12,0.66,14,-999,31.0,3,1,2,3.0,0.0,3.0,0.0,0.0,0.0,11
6,2,4863.32,2,4883.66,4885.17,8.44,C,right,0.72,12,0.68,14,0.85,11,0.55,19,-999,2.0,1,2,3,-3.0,-1.0,3.0,-1.0,0.0,0.0,101
6,2,4863.32,3,4893.96,4895.47,5.07,B,right,0.72,12,0.65,15,0.7,11,0.63,14,-999,31.0,1,3,2,-3.0,-1.0,0.0,0.0,3.0,-1.0,111
6,2,4863.32,4,4900.89,4902.4,17.61,A,mid,0.24,41,0.37,27,0.76,13,-999.0,-999,-999,99.0,2,1,3,0.0,0.0,0.0,0.0,0.0,0.0,11
6,2,4863.32,5,4920.35,4921.86,5.61,B,left,0.78,13,0.65,15,0.76,12,0.63,14,-999,32.0,2,1,3,3.0,0.0,0.0,0.0,0.0,0.0,100
6,2,4863.32,6,4927.81,4929.33,4.23,B,mid,0.72,13,0.68,15,0.82,10,0.52,18,-999,1.0,3,2,1,-3.0,0.0,3.0,0.0,-3.0,-1.0,0
6,2,4863.32,7,4933.91,4935.43,16.28,A,mid,0.78,12,0.62,15,0.76,11,0.6,14,-999,31.0,2,3,1,3.0,-1.0,-3.0,0.0,0.0,0.0,111
6,2,4863.32,8,4952.05,4953.57,14.78,A,right,0.72,13,0.62,15,0.7,12,0.6,14,-999,32.0,3,2,1,-3.0,0.0,-3.0,0.0,0.0,0.0,0
6,2,4863.32,9,4968.7,4970.21,12.2,A,mid,0.78,13,0.68,15,0.88,10,0.58,18,-999,1.0,2,1,3,3.0,0.0,3.0,0.0,3.0,-1.0,1
6,2,4863.32,10,4982.76,4984.28,9.35,B,mid,0.72,13,0.68,15,0.82,10,0.52,18,-999,1.0,3,2,1,-3.0,0.0,3.0,0.0,-3.0,-1.0,10
6,2,4863.32,11,4993.97,4995.49,18.87,B,left,0.75,12,0.65,15,0.73,11,0.63,14,-999,31.0,3,1,2,0.0,-1.0,0.0,0.0,3.0,-1.0,110
6,2,4863.32,12,5014.7,5016.22,8.62,C,mid,0.72,13,0.62,14,0.85,11,0.55,19,-999,2.0,3,1,2,-3.0,0.0,-3.0,-1.0,0.0,0.0,0
6,2,4863.32,13,5025.18,5026.7,21.02,B,left,0.75,13,0.65,15,0.82,10,0.52,18,-999,1.0,2,1,3,0.0,0.0,0.0,0.0,-3.0,-1.0,110
6,2,4863.32,14,5048.06,5049.57,8.96,B,left,0.72,13,0.65,15,0.7,12,0.63,14,-999,31.0,3,1,2,-3.0,0.0,0.0,0.0,-3.0,-1.0,110
6,2,4863.32,15,5058.88,5060.4,31.33,B,right,0.72,12,0.68,14,0.7,11,0.66,13,-999,31.0,1,3,2,-3.0,-1.0,3.0,-1.0,-3.0,0.0,0
6,2,4863.32,16,5092.07,5093.59,8.38,B,mid,0.75,13,0.65,15,0.73,12,0.63,14,-999,31.0,3,2,1,0.0,0.0,0.0,0.0,0.0,-1.0,1
6,2,4863.32,17,5102.32,5103.84,18.57,B,right,0.72,13,0.68,14,0.7,12,0.66,13,-999,32.0,2,3,1,-3.0,0.0,3.0,-1.0,0.0,-1.0,11
6,2,4863.32,18,5122.75,5124.26,19.2,B,right,0.75,12,0.68,14,0.73,11,0.66,13,-999,32.0,1,3,2,0.0,-1.0,3.0,-1.0,0.0,0.0,10
6,2,4863.32,19,5143.81,5145.32,8.93,B,mid,0.78,12,0.68,15,0.85,10,0.55,18,-999,1.0,3,2,1,3.0,-1.0,3.0,0.0,0.0,-1.0,10
6,2,4863.32,20,5154.6,5156.12,20.81,A,right,0.27,37,0.47,21,0.86,11,-999.0,-999,-999,99.0,3,1,2,0.0,0.0,0.0,0.0,0.0,0.0,11
6,2,4863.32,21,5177.28,5178.8,13.8,B,right,0.72,13,0.65,14,0.7,12,0.63,13,-999,32.0,2,3,1,-3.0,0.0,0.0,-1.0,3.0,0.0,101
6,2,4863.32,22,5192.94,5194.46,58.17,A,right,0.16,62,0.46,21,0.87,11,-999.0,-999,-999,99.0,3,2,1,0.0,0.0,0.0,0.0,0.0,0.0,10
6,2,4863.32,23,5252.97,5254.49,13.24,B,mid,0.78,12,0.62,15,0.76,11,0.6,14,-999,32.0,3,2,1,3.0,-1.0,-3.0,0.0,-3.0,-1.0,111
6,2,4863.32,24,5268.07,5269.58,9.53,C,mid,0.72,12,0.68,15,0.88,11,0.58,19,-999,2.0,3,1,2,-3.0,-1.0,3.0,0.0,3.0,0.0,10
6,2,4863.32,25,5279.46,5280.98,18.35,A,mid,0.72,13,0.62,14,0.7,12,0.6,13,-999,32.0,2,3,1,-3.0,0.0,-3.0,-1.0,0.0,0.0,100
6,2,4863.32,26,5299.67,5301.19,7.73,A,left,0.75,12,0.62,15,0.73,11,0.6,14,-999,32.0,1,2,3,0.0,-1.0,-3.0,0.0,-3.0,0.0,11
6,2,4863.32,27,5309.25,5310.77,17.26,B,right,0.75,12,0.65,14,0.73,11,0.63,13,-999,32.0,2,3,1,0.0,-1.0,0.0,-1.0,3.0,0.0,1
6,2,4863.32,28,5328.36,5329.88,12.0,A,left,0.78,13,0.62,14,0.85,10,0.55,18,-999,1.0,1,3,2,3.0,0.0,-3.0,-1.0,0.0,-1.0,0
6,2,4863.32,29,5342.23,5343.74,6.21,B,left,0.78,12,0.65,15,0.76,11,0.63,14,-999,32.0,3,1,2,3.0,-1.0,0.0,0.0,-3.0,-1.0,100
6,2,4863.32,30,5350.29,5351.81,19.44,A,left,0.19,52,0.59,16,0.81,12,-999.0,-999,-999,99.0,1,2,3,0.0,0.0,0.0,0.0,0.0,0.0,0
6,2,4863.32,31,5371.58,5373.1,14.87,C,right,0.75,12,0.62,15,0.88,10,0.58,18,-999,2.0,2,1,3,0.0,-1.0,-3.0,0.0,3.0,-1.0,10
6,2,4863.32,32,5388.31,5389.83,13.22,A,left,0.78,13,0.62,14,0.85,11,0.55,19,-999,2.0,1,3,2,3.0,0.0,-3.0,-1.0,0.0,0.0,111
6,2,4863.32,33,5403.39,5404.91,24.29,A,left,0.78,13,0.65,14,0.82,11,0.52,19,-999,1.0,1,2,3,3.0,0.0,0.0,-1.0,-3.0,0.0,10
6,2,4863.32,34,5429.55,5431.06,9.45,A,right,0.78,13,0.65,14,0.82,10,0.52,18,-999,1.0,3,2,1,3.0,0.0,0.0,-1.0,-3.0,-1.0,100
6,2,4863.32,35,5440.86,5442.38,25.42,A,left,0.29,34,0.42,23,0.72,13,-999.0,-999,-999,99.0,1,2,3,0.0,0.0,0.0,0.0,0.0,0.0,101
6,2,4863.32,36,5468.14,5469.65,15.15,A,left,0.78,13,0.62,14,0.76,12,0.6,13,-999,31.0,1,3,2,3.0,0.0,-3.0,-1.0,-3.0,0.0,11
6,2,4863.32,37,5485.15,5486.66,5.9,A,left,0.72,13,0.62,15,0.7,12,0.6,14,-999,32.0,1,3,2,-3.0,0.0,-3.0,0.0,3.0,-1.0,11
6,2,4863.32,38,5524.6,5526.12,9.82,A,right,0.78,13,0.62,15,0.76,12,0.6,14,-999,32.0,3,1,2,3.0,0.0,-3.0,0.0,3.0,0.0,111
6,2,4863.32,39,5536.28,5537.8,15.92,B,right,0.72,13,0.65,15,0.82,10,0.52,18,-999,2.0,1,3,2,-3.0,0.0,0.0,0.0,-3.0,-1.0,111
6,2,4863.32,40,5554.06,5555.57,18.27,C,right,0.32,31,0.6,16,0.78,12,-999.0,-999,-999,99.0,2,1,3,0.0,0.0,0.0,0.0,0.0,0.0,10
6,2,4863.32,41,5574.18,5575.7,24.35,C,right,0.75,12,0.62,15,0.88,11,0.58,19,-999,1.0,1,2,3,0.0,-1.0,-3.0,0.0,3.0,0.0,0
6,2,4863.32,42,5600.39,5601.91,15.73,B,left,0.72,12,0.65,15,0.7,11,0.63,14,-999,31.0,3,1,2,-3.0,-1.0,0.0,0.0,3.0,-1.0,0
6,2,4863.32,43,5617.99,5619.5,7.73,C,right,0.72,12,0.62,14,0.88,11,0.58,19,-999,2.0,1,2,3,-3.0,-1.0,-3.0,-1.0,3.0,0.0,100
6,2,4863.32,44,5627.57,5629.08,12.28,B,left,0.75,12,0.68,15,0.88,11,0.58,19,-999,1.0,2,1,3,0.0,-1.0,3.0,0.0,3.0,0.0,101
6,2,4863.32,45,5641.71,5643.23,9.54,A,left,0.75,13,0.65,14,0.85,10,0.55,18,-999,2.0,1,2,3,0.0,0.0,0.0,-1.0,0.0,-1.0,100
6,2,4863.32,46,5653.11,5654.63,15.83,B,right,0.72,12,0.65,15,0.85,11,0.55,19,-999,2.0,2,3,1,-3.0,-1.0,0.0,0.0,0.0,0.0,11
6,2,4863.32,47,5670.8,5672.32,43.59,B,mid,0.75,12,0.68,14,0.85,10,0.55,18,-999,2.0,3,2,1,0.0,-1.0,3.0,-1.0,0.0,-1.0,11
6,2,4863.32,48,5716.26,5717.77,11.03,A,mid,0.78,12,0.62,15,0.85,10,0.55,18,-999,1.0,2,1,3,3.0,-1.0,-3.0,0.0,0.0,-1.0,10
6,2,4863.32,49,5729.13,5730.65,5.84,B,right,0.78,12,0.68,15,0.76,11,0.66,14,-999,31.0,1,3,2,3.0,-1.0,3.0,0.0,0.0,0.0,10
6,2,4863.32,50,5736.83,5738.35,8.06,A,mid,0.78,12,0.62,14,0.76,11,0.6,13,-999,32.0,2,1,3,3.0,-1.0,-3.0,-1.0,0.0,-1.0,110
6,2,4863.32,51,5746.75,5748.26,18.58,B,right,0.31,32,0.38,26,0.85,11,-999.0,-999,-999,99.0,1,3,2,0.0,0.0,0.0,0.0,0.0,0.0,0
6,2,4863.32,52,5767.17,5768.69,13.86,B,mid,0.78,12,0.68,15,0.88,11,0.58,19,-999,1.0,1,2,3,3.0,-1.0,3.0,0.0,3.0,0.0,110
6,2,4863.32,53,5782.88,5784.4,16.12,B,right,0.75,12,0.68,14,0.73,11,0.66,13,-999,31.0,2,3,1,0.0,-1.0,3.0,-1.0,0.0,-1.0,111
6,2,4863.32,54,5800.86,5802.38,16.23,A,mid,0.19,52,0.56,17,0.8,12,-999.0,-999,-999,99.0,2,1,3,0.0,0.0,0.0,0.0,0.0,0.0,101
6,2,4863.32,55,5818.96,5820.47,18.68,A,right,0.75,13,0.65,15,0.73,12,0.63,14,-999,31.0,3,2,1,0.0,0.0,0.0,0.0,0.0,0.0,100
6,2,4863.32,56,5839.5,5841.01,15.56,C,right,0.75,13,0.62,14,0.88,11,0.58,19,-999,2.0,1,2,3,0.0,0.0,-3.0,-1.0,3.0,0.0,111
6,2,4863.32,57,5856.91,5858.43,23.55,A,left,0.75,13,0.65,14,0.73,12,0.63,13,-999,31.0,1,2,3,0.0,0.0,0.0,-1.0,0.0,0.0,1
6,2,4863.32,58,5882.32,5883.83,7.07,A,right,0.78,13,0.65,14,0.82,10,0.52,18,-999,2.0,3,2,1,3.0,0.0,0.0,-1.0,-3.0,-1.0,0
6,2,4863.32,59,5891.25,5892.77,17.08,A,mid,0.27,37,0.61,16,0.89,11,-999.0,-999,-999,99.0,2,3,1,0.0,0.0,0.0,0.0,0.0,0.0,10
6,2,4863.32,60,5910.18,5911.69,23.57,A,right,0.78,13,0.68,15,0.82,11,0.52,19,-999,1.0,3,1,2,3.0,0.0,3.0,0.0,-3.0,0.0,111
6,2,4863.32,61,5935.6,5937.12,20.92,A,right,0.72,13,0.62,15,0.7,12,0.6,14,-999,31.0,3,2,1,-3.0,0.0,-3.0,0.0,0.0,-1.0,110
6,2,4863.32,62,5958.38,5959.89,22.89,A,left,0.78,13,0.65,15,0.76,12,0.63,14,-999,32.0,1,2,3,3.0,0.0,0.0,0.0,-3.0,-1.0,100
6,2,4863.32,63,5983.14,5984.65,12.33,A,left,0.28,35,0.67,14,0.78,12,-999.0,-999,-999,99.0,1,2,3,0.0,0.0,0.0,0.0,0.0,0.0,0
6,2,4863.32,64,5997.31,5998.83,12.11,B,mid,0.72,12,0.65,14,0.7,11,0.63,13,-999,31.0,1,2,3,-3.0,-1.0,0.0,-1.0,3.0,-1.0,10
6,2,4863.32,65,6011.29,6012.81,7.94,C,mid,0.72,13,0.62,14,0.85,11,0.55,19,-999,2.0,3,1,2,-3.0,0.0,-3.0,-1.0,0.0,0.0,0
6,2,4863.32,66,6021.09,6022.61,18.15,B,right,0.72,13,0.68,15,0.82,11,0.52,19,-999,2.0,2,3,1,-3.0,0.0,3.0,0.0,-3.0,0.0,110
6,2,4863.32,67,6041.1,6042.62,11.58,A,right,0.75,13,0.65,14,0.73,12,0.63,13,-999,31.0,3,2,1,0.0,0.0,0.0,-1.0,-3.0,-1.0,10
6,2,4863.32,68,6054.53,6056.04,6.99,A,right,0.75,13,0.62,15,0.88,10,0.58,18,-999,1.0,3,2,1,0.0,0.0,-3.0,0.0,3.0,-1.0,110
6,2,4863.32,69,6063.38,6064.89,11.11,A,right,0.72,13,0.65,15,0.82,10,0.52,18,-999,1.0,3,1,2,-3.0,0.0,0.0,0.0,-3.0,-1.0,10
6,2,4863.32,70,6076.34,6077.85,18.02,C,right,0.72,13,0.68,14,0.88,11,0.58,19,-999,2.0,2,1,3,-3.0,0.0,3.0,-1.0,3.0,0.0,1
6,2,4863.32,71,6096.22,6097.73,14.33,B,mid,0.78,12,0.68,14,0.76,11,0.66,13,-999,32.0,3,2,1,3.0,-1.0,3.0,-1.0,3.0,-1.0,110
6,2,4863.32,72,6112.41,6113.93,15.95,B,right,0.72,12,0.62,15,0.7,11,0.6,14,-999,32.0,1,3,2,-3.0,-1.0,-3.0,0.0,-3.0,-1.0,110
6,2,4863.32,73,6130.22,6131.74,9.68,C,left,0.72,12,0.65,15,0.88,10,0.58,18,-999,2.0,3,2,1,-3.0,-1.0,0.0,0.0,3.0,-1.0,110
6,2,4863.32,74,6141.75,6143.27,10.04,C,left,0.75,13,0.65,15,0.85,11,0.55,19,-999,1.0,3,2,1,0.0,0.0,0.0,0.0,0.0,0.0,11
6,2,4863.32,75,6153.65,6155.16,10.48,B,right,0.32,31,0.48,20,0.85,11,-999.0,-999,-999,99.0,1,3,2,0.0,0.0,0.0,0.0,0.0,0.0,111
6,Estimation3,6282.12,E1,6282.19,6283.7,5.32,B,left,0.75,11,0.65,15,0.85,-999,0.55,20,3,,3,1,2,,,,,,,100
6,Estimation3,6282.12,E2,6289.35,6290.87,3.3,C,left,0.75,12,0.65,15,0.85,-999,0.55,20,1,2.0,3,2,1,,,,,,,11
6,Estimation3,6282.12,E3,6294.52,6296.03,2.9,B,mid,0.75,12,0.65,15,0.85,-999,0.55,18,3,,1,2,3,,,,,,,110
6,Estimation3,6282.12,E4,6299.28,6300.8,5.62,B,mid,0.75,13,0.65,15,0.85,-999,0.55,18,1,2.0,1,2,3,,,,,,,0
6,Estimation3,6282.12,E5,6306.76,6308.28,5.48,B,mid,0.75,13,0.65,15,0.85,-999,0.55,19,3,,3,2,1,,,,,,,111
6,Estimation3,6282.12,E6,6314.11,6315.63,7.19,C,mid,0.75,13,0.65,15,0.85,7,0.55,19,1,2.0,3,1,2,,,,,,,101
6,Estimation3,6282.12,E7,6323.16,6324.67,3.44,A,left,0.75,13,0.65,15,0.85,7,0.55,19,2,1.0,1,2,3,,,,,,,11
6,Estimation3,6282.12,E8,6328.46,6329.97,4.38,C,left,0.75,13,0.65,15,0.85,9,0.55,19,1,2.0,3,2,1,,,,,,,0
6,Estimation3,6282.12,E9,6334.71,6336.22,4.54,A,left,0.75,13,0.65,15,0.85,9,0.55,19,2,1.0,1,3,2,,,,,,,0
6,Estimation3,6282.12,E10,6341.1,6342.62,6.79,C,left,0.75,13,0.65,15,0.85,10,0.55,19,1,2.0,2,3,1,,,,,,,10
6,Estimation3,6282.12,E11,6349.75,6351.27,3.34,A,mid,0.75,13,0.65,15,0.85,10,0.55,19,2,1.0,2,1,3,,,,,,,11
6,Estimation3,6282.12,E12,6354.95,6356.46,3.03,C,mid,0.75,13,0.65,15,0.85,11,0.55,19,1,2.0,1,3,2,,,,,,,100
6,Estimation3,6282.12,E13,6359.85,6361.36,3.71,A,right,0.75,13,0.65,15,0.85,11,0.55,19,2,1.0,3,2,1,,,,,,,101
6,3,6367.84,1,6367.91,6369.43,14.92,C,right,0.72,12,0.68,14,0.85,11,0.55,19,-999,2.0,2,1,3,-3.0,-1.0,3.0,-1.0,0.0,0.0,111
6,3,6367.84,2,6384.69,6386.2,7.51,A,mid,0.78,13,0.65,14,0.82,10,0.52,18,-999,1.0,2,3,1,3.0,0.0,0.0,-1.0,-3.0,-1.0,111
6,3,6367.84,3,6394.05,6395.57,6.06,C,right,0.72,13,0.62,14,0.85,11,0.55,19,-999,2.0,1,2,3,-3.0,0.0,-3.0,-1.0,0.0,0.0,11
6,3,6367.84,4,6401.97,6403.48,6.34,B,left,0.78,12,0.68,15,0.85,10,0.55,18,-999,1.0,3,1,2,3.0,-1.0,3.0,0.0,0.0,-1.0,111
6,3,6367.84,5,6410.16,6411.68,18.63,A,left,0.75,13,0.65,15,0.85,11,0.55,19,-999,1.0,1,3,2,0.0,0.0,0.0,0.0,0.0,0.0,1
6,3,6367.84,6,6430.64,6432.16,7.43,B,left,0.75,12,0.68,15,0.88,11,0.58,19,-999,1.0,3,1,2,0.0,-1.0,3.0,0.0,3.0,0.0,10
6,3,6367.84,7,6439.92,6441.44,13.07,A,left,0.78,12,0.62,15,0.85,10,0.55,18,-999,1.0,1,2,3,3.0,-1.0,-3.0,0.0,0.0,-1.0,11
6,3,6367.84,8,6454.85,6456.37,5.54,A,left,0.78,12,0.62,15,0.76,11,0.6,14,-999,31.0,1,3,2,3.0,-1.0,-3.0,0.0,0.0,0.0,10
6,3,6367.84,9,6462.25,6463.76,15.32,A,right,0.19,52,0.56,17,0.8,12,-999.0,-999,-999,99.0,3,1,2,0.0,0.0,0.0,0.0,0.0,0.0,1
6,3,6367.84,10,6479.42,6480.94,18.69,C,left,0.75,12,0.62,15,0.88,10,0.58,18,-999,2.0,2,3,1,0.0,-1.0,-3.0,0.0,3.0,-1.0,101
6,3,6367.84,11,6499.97,6501.48,9.22,A,right,0.75,13,0.65,14,0.73,12,0.63,13,-999,31.0,3,2,1,0.0,0.0,0.0,-1.0,-3.0,-1.0,110
6,3,6367.84,12,6511.05,6512.56,8.42,B,mid,0.75,12,0.68,14,0.85,10,0.55,18,-999,2.0,3,2,1,0.0,-1.0,3.0,-1.0,0.0,-1.0,111
6,3,6367.84,13,6521.33,6522.84,11.85,A,left,0.78,13,0.65,15,0.76,12,0.63,14,-999,32.0,1,2,3,3.0,0.0,0.0,0.0,-3.0,-1.0,1
6,3,6367.84,14,6535.02,6536.54,22.54,B,mid,0.24,41,0.37,27,0.76,13,-999.0,-999,-999,99.0,1,2,3,0.0,0.0,0.0,0.0,0.0,0.0,0
6,3,6367.84,15,6559.42,6560.93,9.24,B,right,0.72,13,0.65,15,0.82,10,0.52,18,-999,1.0,2,3,1,-3.0,0.0,0.0,0.0,-3.0,-1.0,111
6,3,6367.84,16,6570.51,6572.03,12.84,A,left,0.29,34,0.42,23,0.72,13,-999.0,-999,-999,99.0,1,3,2,0.0,0.0,0.0,0.0,0.0,0.0,11
6,3,6367.84,17,6585.21,6586.72,21.19,B,left,0.72,13,0.65,15,0.82,10,0.52,18,-999,2.0,2,1,3,-3.0,0.0,0.0,0.0,-3.0,-1.0,11
6,3,6367.84,18,6608.25,6609.77,12.94,B,mid,0.78,13,0.68,15,0.82,11,0.52,19,-999,1.0,1,2,3,3.0,0.0,3.0,0.0,-3.0,0.0,110
6,3,6367.84,19,6623.04,6624.56,8.43,A,right,0.75,13,0.65,14,0.73,12,0.63,13,-999,31.0,3,1,2,0.0,0.0,0.0,-1.0,0.0,0.0,10
6,3,6367.84,20,6633.34,6634.86,10.02,B,left,0.72,13,0.68,15,0.82,10,0.52,18,-999,1.0,2,1,3,-3.0,0.0,3.0,0.0,-3.0,-1.0,100
6,3,6367.84,21,6645.22,6646.74,7.72,A,left,0.75,13,0.62,15,0.88,10,0.58,18,-999,1.0,1,2,3,0.0,0.0,-3.0,0.0,3.0,-1.0,11
6,3,6367.84,22,6654.8,6656.32,7.7,B,right,0.72,13,0.62,15,0.7,12,0.6,14,-999,32.0,1,3,2,-3.0,0.0,-3.0,0.0,3.0,-1.0,111
6,3,6367.84,23,6664.36,6665.88,33.94,A,mid,0.16,62,0.46,21,0.87,11,-999.0,-999,-999,99.0,2,3,1,0.0,0.0,0.0,0.0,0.0,0.0,11
6,3,6367.84,24,6700.17,6701.69,17.26,A,mid,0.27,37,0.47,21,0.86,11,-999.0,-999,-999,99.0,2,3,1,0.0,0.0,0.0,0.0,0.0,0.0,10
6,3,6367.84,25,6719.28,6720.8,8.99,A,right,0.78,13,0.62,14,0.76,12,0.6,13,-999,31.0,3,2,1,3.0,0.0,-3.0,-1.0,-3.0,0.0,101
6,3,6367.84,26,6730.13,6731.64,23.47,A,right,0.19,52,0.59,16,0.81,12,-999.0,-999,-999,99.0,3,2,1,0.0,0.0,0.0,0.0,0.0,0.0,111
6,3,6367.84,27,6755.45,6756.97,13.54,A,right,0.78,12,0.62,15,0.76,11,0.6,14,-999,32.0,3,1,2,3.0,-1.0,-3.0,0.0,-3.0,-1.0,10
6,3,6367.84,28,6770.85,6772.36,33.83,B,left,0.31,32,0.38,26,0.85,11,-999.0,-999,-999,99.0,2,1,3,0.0,0.0,0.0,0.0,0.0,0.0,110
6,3,6367.84,29,6806.53,6808.05,6.08,A,left,0.78,13,0.62,15,0.76,12,0.6,14,-999,32.0,1,3,2,3.0,0.0,-3.0,0.0,3.0,0.0,0
6,3,6367.84,30,6814.47,6815.98,28.26,A,mid,0.28,35,0.67,14,0.78,12,-999.0,-999,-999,99.0,2,3,1,0.0,0.0,0.0,0.0,0.0,0.0,11
6,3,6367.84,31,6844.59,6846.11,6.67,A,left,0.75,12,0.62,15,0.73,11,0.6,14,-999,32.0,1,2,3,0.0,-1.0,-3.0,0.0,-3.0,0.0,11
6,3,6367.84,32,6853.12,6854.64,11.42,B,left,0.72,12,0.62,15,0.7,11,0.6,14,-999,32.0,3,1,2,-3.0,-1.0,-3.0,0.0,-3.0,-1.0,110
6,3,6367.84,33,6866.4,6867.92,17.84,B,left,0.78,12,0.68,14,0.76,11,0.66,13,-999,32.0,3,1,2,3.0,-1.0,3.0,-1.0,3.0,-1.0,10
6,3,6367.84,34,6886.09,6887.61,8.26,B,right,0.32,31,0.6,16,0.78,12,-999.0,-999,-999,99.0,1,3,2,0.0,0.0,0.0,0.0,0.0,0.0,1
6,3,6367.84,35,6896.21,6897.72,8.5,A,mid,0.32,31,0.48,20,0.85,11,-999.0,-999,-999,99.0,2,1,3,0.0,0.0,0.0,0.0,0.0,0.0,11
6,3,6367.84,36,6906.55,6908.07,14.93,A,left,0.75,13,0.65,14,0.85,10,0.55,18,-999,2.0,1,3,2,0.0,0.0,0.0,-1.0,0.0,-1.0,110
6,3,6367.84,37,6923.35,6924.86,8.32,B,left,0.75,12,0.65,15,0.73,11,0.63,14,-999,31.0,2,1,3,0.0,-1.0,0.0,0.0,3.0,-1.0,100
6,3,6367.84,38,6949.54,6951.06,13.04,A,mid,0.78,12,0.62,14,0.76,11,0.6,13,-999,32.0,2,3,1,3.0,-1.0,-3.0,-1.0,0.0,-1.0,10
6,3,6367.84,39,6964.43,6965.95,12.03,B,mid,0.72,13,0.68,14,0.7,12,0.66,13,-999,32.0,3,2,1,-3.0,0.0,3.0,-1.0,0.0,-1.0,1
6,3,6367.84,40,6978.31,6979.83,10.27,A,mid,0.27,37,0.61,16,0.89,11,-999.0,-999,-999,99.0,2,1,3,0.0,0.0,0.0,0.0,0.0,0.0,10
6,3,6367.84,41,6990.44,6991.96,13.07,C,mid,0.75,12,0.62,15,0.88,11,0.58,19,-999,1.0,3,1,2,0.0,-1.0,-3.0,0.0,3.0,0.0,100
6,3,6367.84,42,7005.37,7006.89,9.79,B,mid,0.72,12,0.65,15,0.7,11,0.63,14,-999,31.0,1,2,3,-3.0,-1.0,0.0,0.0,3.0,-1.0,100
6,3,6367.84,43,7017.02,7018.53,6.79,A,mid,0.72,13,0.62,15,0.7,12,0.6,14,-999,31.0,2,3,1,-3.0,0.0,-3.0,0.0,0.0,-1.0,0
6,3,6367.84,44,7025.66,7027.18,9.55,B,mid,0.72,12,0.65,15,0.7,11,0.63,14,-999,31.0,3,2,1,-3.0,-1.0,0.0,0.0,3.0,-1.0,11
6,3,6367.84,45,7037.08,7038.59,6.74,B,right,0.72,13,0.68,15,0.82,11,0.52,19,-999,2.0,1,3,2,-3.0,0.0,3.0,0.0,-3.0,0.0,0
6,3,6367.84,46,7045.67,7047.19,24.31,C,mid,0.72,12,0.65,15,0.88,10,0.58,18,-999,2.0,3,1,2,-3.0,-1.0,0.0,0.0,3.0,-1.0,110
6,3,6367.84,47,7071.85,7073.37,9.59,B,right,0.75,12,0.68,14,0.73,11,0.66,13,-999,32.0,1,3,2,0.0,-1.0,3.0,-1.0,0.0,0.0,100
6,3,6367.84,48,7083.3,7084.81,10.84,A,left,0.72,13,0.65,14,0.7,12,0.63,13,-999,32.0,1,3,2,-3.0,0.0,0.0,-1.0,3.0,0.0,111
6,3,6367.84,49,7095.99,7097.51,7.93,C,left,0.78,13,0.62,14,0.85,11,0.55,19,-999,2.0,2,3,1,3.0,0.0,-3.0,-1.0,0.0,0.0,111
6,3,6367.84,50,7105.79,7107.3,6.24,A,right,0.75,13,0.65,15,0.82,10,0.52,18,-999,1.0,3,2,1,0.0,0.0,0.0,0.0,-3.0,-1.0,101
6,3,6367.84,51,7113.89,7115.4,6.48,A,right,0.75,12,0.65,14,0.73,11,0.63,13,-999,32.0,3,2,1,0.0,-1.0,0.0,-1.0,3.0,0.0,1
6,3,6367.84,52,7122.22,7123.73,9.72,B,left,0.72,13,0.65,15,0.7,12,0.63,14,-999,31.0,3,1,2,-3.0,0.0,0.0,0.0,-3.0,-1.0,100
6,3,6367.84,53,7133.8,7135.31,8.55,B,left,0.78,12,0.68,15,0.76,11,0.66,14,-999,31.0,2,1,3,3.0,-1.0,3.0,0.0,0.0,0.0,0
6,3,6367.84,54,7144.21,7145.73,17.11,B,right,0.78,12,0.68,15,0.88,11,0.58,19,-999,1.0,2,3,1,3.0,-1.0,3.0,0.0,3.0,0.0,111
6,3,6367.84,55,7163.19,7164.7,8.82,C,left,0.72,13,0.62,14,0.85,11,0.55,19,-999,2.0,3,2,1,-3.0,0.0,-3.0,-1.0,0.0,0.0,111
6,3,6367.84,56,7173.87,7175.38,24.37,B,left,0.72,12,0.68,14,0.7,11,0.66,13,-999,31.0,2,1,3,-3.0,-1.0,3.0,-1.0,-3.0,0.0,101
6,3,6367.84,57,7200.09,7201.61,6.55,B,right,0.78,13,0.68,15,0.76,12,0.66,14,-999,31.0,2,3,1,3.0,0.0,3.0,0.0,0.0,0.0,101
6,3,6367.84,58,7208.5,7210.02,6.25,B,mid,0.72,13,0.68,15,0.82,10,0.52,18,-999,1.0,1,2,3,-3.0,0.0,3.0,0.0,-3.0,-1.0,111
6,3,6367.84,59,7216.62,7218.13,9.46,A,right,0.78,13,0.65,14,0.82,11,0.52,19,-999,1.0,3,1,2,3.0,0.0,0.0,-1.0,-3.0,0.0,100
6,3,6367.84,60,7227.93,7229.45,8.69,A,left,0.72,13,0.62,14,0.7,12,0.6,13,-999,32.0,1,3,2,-3.0,0.0,-3.0,-1.0,0.0,0.0,101
6,3,6367.84,61,7238.48,7239.99,5.88,A,left,0.75,13,0.65,15,0.73,12,0.63,14,-999,31.0,1,3,2,0.0,0.0,0.0,0.0,0.0,-1.0,100
6,3,6367.84,62,7246.23,7247.74,6.87,A,mid,0.78,13,0.65,14,0.82,10,0.52,18,-999,2.0,2,3,1,3.0,0.0,0.0,-1.0,-3.0,-1.0,101
6,3,6367.84,63,7254.96,7256.47,8.9,C,mid,0.75,13,0.62,14,0.88,11,0.58,19,-999,2.0,1,3,2,0.0,0.0,-3.0,-1.0,3.0,0.0,111
6,3,6367.84,64,7265.72,7267.24,6.67,A,mid,0.78,13,0.65,15,0.76,12,0.63,14,-999,32.0,2,3,1,3.0,0.0,0.0,0.0,0.0,0.0,10
6,3,6367.84,65,7274.25,7275.77,5.13,B,mid,0.78,13,0.68,15,0.88,10,0.58,18,-999,1.0,3,2,1,3.0,0.0,3.0,0.0,3.0,-1.0,0
6,3,6367.84,66,7281.23,7282.75,5.93,A,mid,0.72,13,0.62,15,0.7,12,0.6,14,-999,32.0,2,3,1,-3.0,0.0,-3.0,0.0,0.0,0.0,111
6,3,6367.84,67,7289.01,7290.53,6.42,C,left,0.72,12,0.62,14,0.88,11,0.58,19,-999,2.0,2,3,1,-3.0,-1.0,-3.0,-1.0,3.0,0.0,10
6,3,6367.84,68,7297.29,7298.81,4.95,A,left,0.78,13,0.62,14,0.85,10,0.55,18,-999,1.0,1,3,2,3.0,0.0,-3.0,-1.0,0.0,-1.0,11
6,3,6367.84,69,7304.09,7305.61,9.62,C,mid,0.72,12,0.68,15,0.88,11,0.58,19,-999,2.0,1,3,2,-3.0,-1.0,3.0,0.0,3.0,0.0,0
6,3,6367.84,70,7315.57,7317.09,12.23,A,mid,0.78,12,0.65,15,0.76,11,0.63,14,-999,32.0,2,1,3,3.0,-1.0,0.0,0.0,-3.0,-1.0,110
6,3,6367.84,71,7329.65,7331.17,8.65,C,right,0.72,13,0.68,14,0.88,11,0.58,19,-999,2.0,2,1,3,-3.0,0.0,3.0,-1.0,3.0,0.0,111
6,3,6367.84,72,7340.16,7341.68,7.06,C,right,0.72,12,0.65,15,0.85,11,0.55,19,-999,2.0,2,1,3,-3.0,-1.0,0.0,0.0,0.0,0.0,111
6,3,6367.84,73,7349.08,7350.59,13.4,A,right,0.72,12,0.65,14,0.7,11,0.63,13,-999,31.0,3,1,2,-3.0,-1.0,0.0,-1.0,3.0,-1.0,0
6,3,6367.84,74,7364.34,7365.85,7.17,A,mid,0.75,13,0.65,15,0.73,12,0.63,14,-999,31.0,2,3,1,0.0,0.0,0.0,0.0,0.0,0.0,10
6,3,6367.84,75,7373.37,7374.88,7.34,B,mid,0.75,12,0.68,14,0.73,11,0.66,13,-999,31.0,3,2,1,0.0,-1.0,3.0,-1.0,0.0,-1.0,11
