subject,block,block_onset,trial,fixation_cross_onset,trial_onset,rt,choice,key,pA,mA,pB,mB,pCA,mCA,pCB,mCB,missing,condition,position_A,position_B,position_C,noise_Ap,noise_Am,noise_Bp,noise_Bm,noise_Cp,noise_Cm,attribute_positions
0,Practice,2302.98,P1,2303.03,2304.54,4.43,B,left,0.78,7,0.62,17,0.85,3,0.55,24,-999,2.0,3,1,2,3.0,-2.0,-3.0,2.0,0.0,-1.0,1
0,Practice,2302.98,P2,2309.33,2310.84,4.31,C,right,0.72,7,0.62,16,0.88,5,0.58,26,-999,2.0,1,2,3,-3.0,-2.0,-3.0,1.0,3.0,1.0,10
0,Practice,2302.98,P3,2315.49,2317.01,5.54,A,mid,0.75,11,0.68,13,0.85,4,0.55,25,-999,1.0,2,3,1,0.0,2.0,3.0,-2.0,0.0,0.0,110
0,Practice,2302.98,P4,2322.89,2324.41,5.74,B,left,0.75,9,0.65,15,0.88,5,0.58,26,-999,1.0,3,1,2,0.0,0.0,0.0,0.0,3.0,1.0,100
0,Practice,2302.98,P5,2330.49,2332.0,4.75,A,left,0.72,11,0.62,13,0.85,6,0.55,27,-999,1.0,1,3,2,-3.0,2.0,-3.0,-2.0,0.0,2.0,101
0,Practice,2302.98,P6,2337.08,2338.6,6.16,B,right,0.78,7,0.62,13,0.82,6,0.52,27,-999,2.0,2,3,1,3.0,-2.0,-3.0,-2.0,-3.0,2.0,110
0,Practice,2302.98,P7,2345.1,2346.61,3.92,C,right,0.75,7,0.65,17,0.85,5,0.55,26,-999,2.0,2,1,3,0.0,-2.0,0.0,2.0,0.0,1.0,111
0,Practice,2302.98,P8,2350.88,2352.4,3.86,B,left,0.72,8,0.68,15,0.82,6,0.52,27,-999,2.0,3,1,2,-3.0,-1.0,3.0,0.0,-3.0,2.0,110
0,Practice,2302.98,P9,2356.59,2358.11,4.96,A,right,0.78,8,0.62,16,0.88,5,0.58,26,-999,1.0,3,1,2,3.0,-1.0,-3.0,1.0,3.0,1.0,1
0,Practice,2302.98,P10,2363.41,2364.92,3.9,B,mid,0.75,10,0.65,16,0.82,2,0.52,23,-999,2.0,1,2,3,0.0,1.0,0.0,1.0,-3.0,-2.0,101
0,Practice,2302.98,P11,2369.17,2370.69,4.62,B,right,0.72,8,0.65,15,0.85,5,0.55,26,-999,2.0,2,3,1,-3.0,-1.0,0.0,0.0,0.0,1.0,0
0,Practice,2302.98,P12,2375.66,2377.17,4.9,B,right,0.72,8,0.68,15,0.85,5,0.55,26,-999,1.0,2,3,1,-3.0,-1.0,3.0,0.0,0.0,1.0,101
0,Practice,2302.98,P13,2382.4,2383.92,4.18,A,mid,0.78,11,0.68,16,0.88,5,0.58,26,-999,1.0,2,1,3,3.0,2.0,3.0,1.0,3.0,1.0,111
0,Practice,2302.98,P14,2388.43,2389.95,5.25,B,mid,0.72,11,0.62,17,0.82,3,0.52,24,-999,2.0,3,2,1,-3.0,2.0,-3.0,2.0,-3.0,-1.0,0
0,Practice,2302.98,P15,2395.53,2397.05,2.99,C,left,0.78,7,0.68,14,0.88,5,0.58,26,-999,2.0,2,3,1,3.0,-2.0,3.0,-1.0,3.0,1.0,10
0,Practice,2302.98,P16,2400.38,2401.9,6.39,C,right,0.78,7,0.65,13,0.82,2,0.52,23,-999,2.0,2,1,3,3.0,-2.0,0.0,-2.0,-3.0,-2.0,1
0,Practice,2302.98,P17,2408.63,2410.14,5.44,A,right,0.72,10,0.65,13,0.82,5,0.52,26,-999,2.0,3,2,1,-3.0,1.0,0.0,-2.0,-3.0,1.0,110
0,Practice,2302.98,P18,2415.93,2417.44,10.83,C,mid,0.78,7,0.68,13,0.88,2,0.58,23,-999,2.0,3,1,2,3.0,-2.0,3.0,-2.0,3.0,-2.0,10
0,Practice,2302.98,P19,2428.62,2430.14,4.95,A,right,0.78,11,0.62,15,0.85,4,0.55,25,-999,1.0,3,1,2,3.0,2.0,-3.0,0.0,0.0,0.0,110
0,Practice,2302.98,P20,2435.44,2436.95,6.63,B,right,0.72,7,0.65,14,0.88,4,0.58,25,-999,1.0,1,3,2,-3.0,-2.0,0.0,-1.0,3.0,0.0,11
0,Practice,2302.98,P21,2443.92,2445.43,4.91,B,left,0.78,9,0.65,16,0.85,2,0.55,23,-999,1.0,3,1,2,3.0,0.0,0.0,1.0,0.0,-2.0,0
0,Practice,2302.98,P22,2450.68,2452.2,5.71,A,left,0.72,9,0.62,15,0.85,2,0.55,23,-999,1.0,1,3,2,-3.0,0.0,-3.0,0.0,0.0,-2.0,10
0,Practice,2302.98,P23,2458.24,2459.76,5.16,B,left,0.72,7,0.65,13,0.88,3,0.58,24,-999,1.0,3,1,2,-3.0,-2.0,0.0,-2.0,3.0,-1.0,100
0,Practice,2302.98,P24,2465.26,2466.78,4.74,C,right,0.78,7,0.65,13,0.82,5,0.52,26,-999,2.0,2,1,3,3.0,-2.0,0.0,-2.0,-3.0,1.0,10
0,Practice,2302.98,P25,2471.86,2473.37,6.24,A,mid,0.78,10,0.68,13,0.85,4,0.55,25,-999,1.0,2,3,1,3.0,1.0,3.0,-2.0,0.0,0.0,111
0,Estimation1,2614.05,E1,2614.13,2615.64,2.79,B,left,0.75,11,0.65,15,0.85,-999,0.55,20,3,,2,1,3,,,,,,,11
0,Estimation1,2614.05,E2,2618.78,2620.29,5.1,C,mid,0.75,12,0.65,15,0.85,-999,0.55,20,1,2.0,1,3,2,,,,,,,101
0,Estimation1,2614.05,E3,2625.74,2627.26,3.52,A,right,0.75,12,0.65,15,0.85,-999,0.55,18,3,,3,1,2,,,,,,,100
0,Estimation1,2614.05,E4,2631.12,2632.64,4.5,C,left,0.75,12,0.65,15,0.85,6,0.55,18,1,2.0,2,3,1,,,,,,,101
0,Estimation1,2614.05,E5,2637.49,2639.0,2.39,A,left,0.75,12,0.65,15,0.85,6,0.55,17,2,1.0,1,2,3,,,,,,,1
0,Estimation1,2614.05,E6,2641.74,2643.25,5.35,B,left,0.75,12,0.65,15,0.85,8,0.55,17,1,2.0,2,1,3,,,,,,,101
0,Estimation1,2614.05,E7,2648.95,2650.47,4.09,A,left,0.75,12,0.65,15,0.85,8,0.55,18,2,1.0,1,2,3,,,,,,,100
0,Estimation1,2614.05,E8,2654.9,2656.41,5.08,C,left,0.75,12,0.65,15,0.85,9,0.55,18,1,2.0,2,3,1,,,,,,,100
0,Estimation1,2614.05,E9,2661.85,2663.36,5.21,C,left,0.75,12,0.65,15,0.85,9,0.55,18,2,1.0,3,2,1,,,,,,,100
0,1,2672.46,1,2672.53,2674.04,7.22,A,mid,0.78,11,0.62,15,0.76,10,0.6,14,-999,31.0,2,1,3,3.0,-1.0,-3.0,0.0,0.0,0.0,10
0,1,2672.46,2,2681.61,2683.12,7.77,B,mid,0.78,11,0.65,15,0.76,10,0.63,14,-999,32.0,1,2,3,3.0,-1.0,0.0,0.0,-3.0,-1.0,1
0,1,2672.46,3,2691.24,2692.75,5.87,C,mid,0.72,12,0.62,15,0.7,11,0.6,14,-999,31.0,3,1,2,-3.0,0.0,-3.0,0.0,0.0,-1.0,110
0,1,2672.46,4,2698.97,2700.48,9.55,C,left,0.78,11,0.62,15,0.76,10,0.6,14,-999,32.0,3,2,1,3.0,-1.0,-3.0,0.0,-3.0,-1.0,101
0,1,2672.46,5,2710.38,2711.9,3.74,C,mid,0.29,34,0.42,23,0.72,13,-999.0,-999,-999,99.0,1,3,2,0.0,0.0,0.0,0.0,0.0,0.0,0
0,1,2672.46,6,2715.98,2717.49,3.65,A,left,0.72,12,0.68,14,0.88,9,0.58,18,-999,2.0,1,3,2,-3.0,0.0,3.0,-1.0,3.0,0.0,0
0,1,2672.46,7,2721.49,2723.01,7.65,B,left,0.72,11,0.65,15,0.85,9,0.55,18,-999,2.0,2,1,3,-3.0,-1.0,0.0,0.0,0.0,0.0,111
0,1,2672.46,8,2730.99,2732.51,3.14,C,mid,0.28,35,0.67,14,0.78,12,-999.0,-999,-999,99.0,1,3,2,0.0,0.0,0.0,0.0,0.0,0.0,110
0,1,2672.46,9,2735.99,2737.5,8.06,B,right,0.75,12,0.65,15,0.85,9,0.55,18,-999,1.0,1,3,2,0.0,0.0,0.0,0.0,0.0,0.0,111
0,1,2672.46,10,2745.92,2747.43,6.16,C,left,0.72,12,0.62,14,0.85,9,0.55,18,-999,2.0,3,2,1,-3.0,0.0,-3.0,-1.0,0.0,0.0,111
0,1,2672.46,11,2753.93,2755.45,6.85,A,left,0.78,12,0.65,14,0.82,9,0.52,18,-999,1.0,1,3,2,3.0,0.0,0.0,-1.0,-3.0,0.0,101
0,1,2672.46,12,2762.65,2764.16,7.44,A,left,0.72,12,0.68,15,0.82,8,0.52,17,-999,1.0,1,2,3,-3.0,0.0,3.0,0.0,-3.0,-1.0,101
0,1,2672.46,13,2771.94,2773.46,11.16,C,left,0.72,11,0.62,14,0.88,9,0.58,18,-999,2.0,3,2,1,-3.0,-1.0,-3.0,-1.0,3.0,0.0,1
0,1,2672.46,14,2784.97,2786.49,8.97,B,right,0.78,11,0.68,15,0.88,9,0.58,18,-999,1.0,1,3,2,3.0,-1.0,3.0,0.0,3.0,0.0,100
0,1,2672.46,15,2795.8,2797.32,8.37,A,mid,0.75,11,0.68,15,0.88,9,0.58,18,-999,1.0,2,3,1,0.0,-1.0,3.0,0.0,3.0,0.0,101
0,1,2672.46,16,2806.03,2807.55,10.86,A,right,0.75,12,0.65,15,0.82,8,0.52,17,-999,1.0,3,2,1,0.0,0.0,0.0,0.0,-3.0,-1.0,111
0,1,2672.46,17,2818.74,2820.26,6.43,C,mid,0.72,12,0.62,15,0.7,11,0.6,14,-999,32.0,1,3,2,-3.0,0.0,-3.0,0.0,0.0,0.0,101
0,1,2672.46,18,2827.03,2828.54,5.28,B,left,0.78,11,0.68,15,0.76,10,0.66,14,-999,31.0,3,1,2,3.0,-1.0,3.0,0.0,0.0,0.0,0
0,1,2672.46,19,2834.16,2835.67,6.74,B,left,0.75,11,0.68,14,0.85,8,0.55,17,-999,2.0,3,1,2,0.0,-1.0,3.0,-1.0,0.0,-1.0,0
0,1,2672.46,20,2842.75,2844.27,5.29,A,right,0.75,11,0.62,15,0.73,10,0.6,14,-999,32.0,3,1,2,0.0,-1.0,-3.0,0.0,-3.0,0.0,111
0,1,2672.46,21,2849.9,2851.42,11.53,C,mid,0.78,12,0.62,14,0.85,9,0.55,18,-999,2.0,3,1,2,3.0,0.0,-3.0,-1.0,0.0,0.0,10
0,1,2672.46,22,2863.3,2864.81,12.58,B,mid,0.72,12,0.65,15,0.7,11,0.63,14,-999,31.0,3,2,1,-3.0,0.0,0.0,0.0,-3.0,-1.0,110
0,1,2672.46,23,2877.73,2879.24,9.91,A,mid,0.75,11,0.68,14,0.73,10,0.66,13,-999,31.0,2,1,3,0.0,-1.0,3.0,-1.0,0.0,-1.0,0
0,1,2672.46,24,2889.5,2891.02,6.95,A,mid,0.75,11,0.62,15,0.88,9,0.58,18,-999,1.0,2,1,3,0.0,-1.0,-3.0,0.0,3.0,0.0,11
0,1,2672.46,25,2898.32,2899.83,7.87,A,mid,0.72,12,0.62,14,0.85,9,0.55,18,-999,2.0,2,1,3,-3.0,0.0,-3.0,-1.0,0.0,0.0,101
0,1,2672.46,26,2908.05,2909.57,6.0,A,mid,0.72,11,0.65,15,0.7,10,0.63,14,-999,31.0,2,1,3,-3.0,-1.0,0.0,0.0,3.0,-1.0,1
0,1,2672.46,27,2915.91,2917.43,4.3,C,left,0.24,41,0.37,27,0.76,13,-999.0,-999,-999,99.0,2,3,1,0.0,0.0,0.0,0.0,0.0,0.0,11
0,1,2672.46,28,2922.06,2923.58,7.23,A,left,0.78,12,0.65,15,0.76,11,0.63,14,-999,32.0,1,2,3,3.0,0.0,0.0,0.0,0.0,0.0,100
0,1,2672.46,29,2931.14,2932.66,5.15,A,left,0.78,11,0.68,15,0.85,8,0.55,17,-999,1.0,1,3,2,3.0,-1.0,3.0,0.0,0.0,-1.0,11
0,1,2672.46,30,2938.16,2939.67,5.67,A,left,0.72,12,0.62,15,0.7,11,0.6,14,-999,32.0,1,2,3,-3.0,0.0,-3.0,0.0,3.0,-1.0,101
0,1,2672.46,31,2945.69,2947.2,6.7,A,left,0.78,12,0.62,15,0.76,11,0.6,14,-999,32.0,1,2,3,3.0,0.0,-3.0,0.0,3.0,0.0,111
0,1,2672.46,32,2954.25,2955.77,7.73,B,left,0.72,12,0.68,15,0.82,9,0.52,18,-999,2.0,2,1,3,-3.0,0.0,3.0,0.0,-3.0,0.0,101
0,1,2672.46,33,2963.85,2965.36,10.29,A,mid,0.78,12,0.62,14,0.76,11,0.6,13,-999,31.0,2,3,1,3.0,0.0,-3.0,-1.0,-3.0,0.0,100
0,1,2672.46,34,2975.99,2977.51,11.81,A,mid,0.75,12,0.62,14,0.88,9,0.58,18,-999,2.0,2,1,3,0.0,0.0,-3.0,-1.0,3.0,0.0,0
0,1,2672.46,35,2989.67,2991.19,5.64,A,mid,0.78,12,0.68,15,0.82,9,0.52,18,-999,1.0,2,3,1,3.0,0.0,3.0,0.0,-3.0,0.0,110
0,1,2672.46,36,2997.17,2998.69,13.33,B,mid,0.75,11,0.62,15,0.88,8,0.58,17,-999,2.0,1,2,3,0.0,-1.0,-3.0,0.0,3.0,-1.0,10
0,1,2672.46,37,3012.35,3013.87,7.93,A,left,0.75,11,0.65,15,0.73,10,0.63,14,-999,31.0,1,3,2,0.0,-1.0,0.0,0.0,3.0,-1.0,100
0,1,2672.46,38,3053.64,3055.15,8.35,A,right,0.72,12,0.68,15,0.82,8,0.52,17,-999,1.0,3,1,2,-3.0,0.0,3.0,0.0,-3.0,-1.0,110
0,1,2672.46,39,3063.83,3065.35,7.2,A,mid,0.75,12,0.65,14,0.73,11,0.63,13,-999,31.0,2,3,1,0.0,0.0,0.0,-1.0,0.0,0.0,0
0,1,2672.46,40,3072.9,3074.41,12.65,B,left,0.75,11,0.68,14,0.73,10,0.66,13,-999,32.0,2,1,3,0.0,-1.0,3.0,-1.0,0.0,0.0,111
0,1,2672.46,41,3087.41,3088.92,10.56,A,left,0.19,52,0.56,17,0.8,12,-999.0,-999,-999,99.0,1,2,3,0.0,0.0,0.0,0.0,0.0,0.0,100
0,1,2672.46,42,3099.82,3101.34,12.21,B,mid,0.75,12,0.65,14,0.73,11,0.63,13,-999,31.0,1,2,3,0.0,0.0,0.0,-1.0,-3.0,-1.0,110
0,1,2672.46,43,3113.88,3115.4,15.07,A,left,0.72,12,0.68,14,0.7,11,0.66,13,-999,32.0,1,2,3,-3.0,0.0,3.0,-1.0,0.0,-1.0,11
0,1,2672.46,44,3130.81,3132.33,8.87,B,left,0.72,11,0.68,14,0.7,10,0.66,13,-999,31.0,3,1,2,-3.0,-1.0,3.0,-1.0,-3.0,0.0,110
0,1,2672.46,45,3141.56,3143.07,9.43,A,mid,0.78,12,0.65,14,0.82,8,0.52,17,-999,1.0,2,1,3,3.0,0.0,0.0,-1.0,-3.0,-1.0,110
0,1,2672.46,46,3152.85,3154.37,9.61,A,left,0.72,11,0.65,14,0.7,10,0.63,13,-999,31.0,1,3,2,-3.0,-1.0,0.0,-1.0,3.0,-1.0,1
0,1,2672.46,47,3164.32,3165.83,13.74,A,left,0.78,11,0.62,15,0.85,8,0.55,17,-999,1.0,1,2,3,3.0,-1.0,-3.0,0.0,0.0,-1.0,110
0,1,2672.46,48,3179.91,3181.43,5.25,B,left,0.72,12,0.65,15,0.82,8,0.52,17,-999,2.0,3,1,2,-3.0,0.0,0.0,0.0,-3.0,-1.0,10
0,1,2672.46,49,3187.03,3188.54,11.06,A,right,0.72,11,0.68,14,0.85,9,0.55,18,-999,2.0,3,2,1,-3.0,-1.0,3.0,-1.0,0.0,0.0,1
0,1,2672.46,50,3199.94,3201.45,4.77,A,mid,0.78,12,0.62,14,0.85,8,0.55,17,-999,1.0,2,1,3,3.0,0.0,-3.0,-1.0,0.0,-1.0,10
0,1,2672.46,51,3206.57,3208.08,5.4,A,mid,0.72,12,0.65,14,0.7,11,0.63,13,-999,32.0,2,3,1,-3.0,0.0,0.0,-1.0,3.0,0.0,11
0,1,2672.46,52,3213.83,3215.35,12.39,B,mid,0.27,37,0.47,21,0.86,11,-999.0,-999,-999,99.0,1,2,3,0.0,0.0,0.0,0.0,0.0,0.0,10
0,1,2672.46,53,3228.08,3229.59,7.89,B,mid,0.72,12,0.62,14,0.7,11,0.6,13,-999,32.0,1,2,3,-3.0,0.0,-3.0,-1.0,0.0,0.0,11
0,1,2672.46,54,3237.83,3239.34,9.69,A,right,0.72,11,0.62,15,0.7,10,0.6,14,-999,32.0,3,2,1,-3.0,-1.0,-3.0,0.0,-3.0,-1.0,0
0,1,2672.46,55,3249.37,3250.89,14.42,B,left,0.27,37,0.61,16,0.89,11,-999.0,-999,-999,99.0,2,1,3,0.0,0.0,0.0,0.0,0.0,0.0,1
0,1,2672.46,56,3265.65,3267.17,5.18,A,mid,0.78,12,0.65,14,0.82,8,0.52,17,-999,2.0,2,1,3,3.0,0.0,0.0,-1.0,-3.0,-1.0,10
0,1,2672.46,57,3272.68,3274.2,20.82,B,mid,0.16,62,0.46,21,0.87,11,-999.0,-999,-999,99.0,1,2,3,0.0,0.0,0.0,0.0,0.0,0.0,0
0,1,2672.46,58,3295.36,3296.87,10.05,B,left,0.31,32,0.38,26,0.85,11,-999.0,-999,-999,99.0,2,1,3,0.0,0.0,0.0,0.0,0.0,0.0,100
0,1,2672.46,59,3307.27,3308.79,9.93,A,left,0.72,11,0.65,15,0.7,10,0.63,14,-999,31.0,1,2,3,-3.0,-1.0,0.0,0.0,3.0,-1.0,0
0,1,2672.46,60,3319.07,3320.58,12.64,A,mid,0.32,31,0.48,20,0.85,11,-999.0,-999,-999,99.0,2,3,1,0.0,0.0,0.0,0.0,0.0,0.0,10
0,1,2672.46,61,3333.56,3335.08,11.02,A,left,0.78,11,0.62,14,0.76,10,0.6,13,-999,32.0,1,2,3,3.0,-1.0,-3.0,-1.0,0.0,-1.0,101
0,1,2672.46,62,3346.44,3347.96,8.79,A,left,0.75,12,0.65,15,0.73,11,0.63,14,-999,31.0,1,3,2,0.0,0.0,0.0,0.0,0.0,-1.0,111
0,1,2672.46,63,3357.09,3358.6,6.66,A,mid,0.72,12,0.65,15,0.82,8,0.52,17,-999,1.0,2,1,3,-3.0,0.0,0.0,0.0,-3.0,-1.0,100
0,1,2672.46,64,3365.6,3367.12,9.83,A,right,0.78,12,0.68,15,0.88,8,0.58,17,-999,1.0,3,1,2,3.0,0.0,3.0,0.0,3.0,-1.0,110
0,1,2672.46,65,3377.28,3378.8,11.89,B,mid,0.78,11,0.68,14,0.76,10,0.66,13,-999,32.0,3,2,1,3.0,-1.0,3.0,-1.0,3.0,-1.0,1
0,1,2672.46,66,3391.03,3392.54,9.38,A,right,0.32,31,0.6,16,0.78,12,-999.0,-999,-999,99.0,3,1,2,0.0,0.0,0.0,0.0,0.0,0.0,111
0,1,2672.46,67,3402.26,3403.77,17.39,C,left,0.19,52,0.59,16,0.81,12,-999.0,-999,-999,99.0,3,2,1,0.0,0.0,0.0,0.0,0.0,0.0,0
0,1,2672.46,68,3421.5,3423.02,12.55,C,right,0.72,11,0.65,15,0.88,8,0.58,17,-999,2.0,1,2,3,-3.0,-1.0,0.0,0.0,3.0,-1.0,0
0,1,2672.46,69,3435.91,3437.43,8.11,A,mid,0.78,12,0.65,15,0.76,11,0.63,14,-999,32.0,2,3,1,3.0,0.0,0.0,0.0,-3.0,-1.0,110
0,1,2672.46,70,3445.87,3447.39,13.33,A,mid,0.75,12,0.65,14,0.85,8,0.55,17,-999,2.0,2,1,3,0.0,0.0,0.0,-1.0,0.0,-1.0,101
0,1,2672.46,71,3461.05,3462.57,13.04,A,mid,0.78,12,0.68,15,0.76,11,0.66,14,-999,31.0,2,1,3,3.0,0.0,3.0,0.0,0.0,0.0,111
0,1,2672.46,72,3475.95,3477.46,8.57,A,left,0.75,12,0.62,15,0.88,8,0.58,17,-999,1.0,1,3,2,0.0,0.0,-3.0,0.0,3.0,-1.0,10
0,1,2672.46,73,3486.38,3487.89,10.05,A,left,0.75,12,0.65,15,0.73,11,0.63,14,-999,31.0,1,2,3,0.0,0.0,0.0,0.0,0.0,0.0,111
0,1,2672.46,74,3498.29,3499.81,7.11,B,left,0.72,11,0.68,15,0.88,9,0.58,18,-999,2.0,3,1,2,-3.0,-1.0,3.0,0.0,3.0,0.0,111
0,1,2672.46,75,3507.25,3508.77,11.02,B,mid,0.75,11,0.65,14,0.73,10,0.63,13,-999,32.0,3,2,1,0.0,-1.0,0.0,-1.0,3.0,0.0,100
0,Estimation2,3649.79,E1,3649.86,3651.37,2.95,A,right,0.75,11,0.65,15,0.85,-999,0.55,20,3,,3,1,2,,,,,,,0
0,Estimation2,3649.79,E2,3654.66,3656.17,7.6,C,mid,0.75,8,0.65,15,0.85,-999,0.55,20,1,2.0,1,3,2,,,,,,,110
0,Estimation2,3649.79,E3,3664.12,3665.64,4.04,B,left,0.75,8,0.65,15,0.85,-999,0.55,18,3,,3,1,2,,,,,,,110
0,Estimation2,3649.79,E4,3670.02,3671.53,5.47,B,left,0.75,10,0.65,15,0.85,-999,0.55,18,1,2.0,2,1,3,,,,,,,110
0,Estimation2,3649.79,E5,3677.35,3678.87,6.82,A,right,0.75,10,0.65,15,0.85,-999,0.55,19,3,,3,2,1,,,,,,,110
0,Estimation2,3649.79,E6,3686.03,3687.55,5.93,B,mid,0.75,9,0.65,15,0.85,-999,0.55,19,1,2.0,3,2,1,,,,,,,100
0,Estimation2,3649.79,E7,3693.83,3695.34,5.37,A,mid,0.75,9,0.65,15,0.85,-999,0.55,20,3,,2,1,3,,,,,,,110
0,Estimation2,3649.79,E8,3701.06,3702.57,8.97,B,mid,0.75,9,0.65,15,0.85,5,0.55,20,1,2.0,1,2,3,,,,,,,0
0,Estimation2,3649.79,E9,3711.89,3713.4,5.62,C,mid,0.75,9,0.65,15,0.85,5,0.55,20,2,1.0,3,1,2,,,,,,,1
0,Estimation2,3649.79,E10,3719.37,3720.89,6.44,C,mid,0.75,9,0.65,15,0.85,4,0.55,20,1,2.0,1,3,2,,,,,,,1
0,Estimation2,3649.79,E11,3727.68,3729.2,5.92,A,left,0.75,9,0.65,15,0.85,4,0.55,20,2,1.0,1,3,2,,,,,,,0
0,Estimation2,3649.79,E12,3735.46,3736.98,9.4,C,right,0.75,9,0.65,15,0.85,5,0.55,20,1,2.0,1,2,3,,,,,,,0
0,Estimation2,3649.79,E13,3746.73,3748.24,5.56,A,right,0.75,9,0.65,15,0.85,5,0.55,20,2,1.0,3,1,2,,,,,,,101
0,2,3760.55,1,3760.62,3762.14,8.4,A,left,0.28,35,0.67,14,0.78,12,-999.0,-999,-999,99.0,1,2,3,0.0,0.0,0.0,0.0,0.0,0.0,111
0,2,3760.55,2,3770.89,3772.4,8.84,B,mid,0.72,9,0.62,14,0.7,8,0.6,13,-999,32.0,3,2,1,-3.0,0.0,-3.0,-1.0,0.0,0.0,111
0,2,3760.55,3,3781.58,3783.1,8.84,B,mid,0.78,8,0.68,14,0.76,7,0.66,13,-999,32.0,3,2,1,3.0,-1.0,3.0,-1.0,3.0,-1.0,110
0,2,3760.55,4,3792.28,3793.79,7.5,B,right,0.72,9,0.68,15,0.82,4,0.52,19,-999,1.0,2,3,1,-3.0,0.0,3.0,0.0,-3.0,-1.0,110
0,2,3760.55,5,3801.64,3803.16,18.0,C,mid,0.72,9,0.62,14,0.85,5,0.55,20,-999,2.0,3,1,2,-3.0,0.0,-3.0,-1.0,0.0,0.0,11
0,2,3760.55,6,3821.5,3823.02,5.97,C,right,0.72,8,0.62,14,0.88,5,0.58,20,-999,2.0,1,2,3,-3.0,-1.0,-3.0,-1.0,3.0,0.0,101
0,2,3760.55,7,3829.33,3830.85,12.6,B,right,0.72,8,0.62,15,0.7,7,0.6,14,-999,32.0,1,3,2,-3.0,-1.0,-3.0,0.0,-3.0,-1.0,111
0,2,3760.55,8,3843.8,3845.31,15.3,B,left,0.24,41,0.37,27,0.76,13,-999.0,-999,-999,99.0,2,1,3,0.0,0.0,0.0,0.0,0.0,0.0,11
0,2,3760.55,9,3860.96,3862.47,11.51,B,left,0.72,9,0.65,15,0.82,4,0.52,19,-999,2.0,2,1,3,-3.0,0.0,0.0,0.0,-3.0,-1.0,100
0,2,3760.55,10,3874.32,3875.83,13.57,A,right,0.75,8,0.68,14,0.73,7,0.66,13,-999,31.0,3,2,1,0.0,-1.0,3.0,-1.0,0.0,-1.0,0
0,2,3760.55,11,3889.75,3891.26,12.66,C,left,0.32,31,0.48,20,0.85,11,-999.0,-999,-999,99.0,2,3,1,0.0,0.0,0.0,0.0,0.0,0.0,111
0,2,3760.55,12,3904.26,3905.78,13.88,B,mid,0.72,8,0.65,14,0.7,7,0.63,13,-999,31.0,3,2,1,-3.0,-1.0,0.0,-1.0,3.0,-1.0,0
0,2,3760.55,13,3919.99,3921.5,8.93,B,left,0.72,8,0.65,15,0.7,7,0.63,14,-999,31.0,2,1,3,-3.0,-1.0,0.0,0.0,3.0,-1.0,1
0,2,3760.55,14,3930.78,3932.3,6.73,B,mid,0.75,8,0.62,15,0.73,7,0.6,14,-999,32.0,3,2,1,0.0,-1.0,-3.0,0.0,-3.0,0.0,10
0,2,3760.55,15,3939.36,3940.88,7.56,A,right,0.19,52,0.59,16,0.81,12,-999.0,-999,-999,99.0,3,1,2,0.0,0.0,0.0,0.0,0.0,0.0,110
0,2,3760.55,16,3948.78,3950.29,8.15,B,left,0.78,9,0.65,15,0.76,8,0.63,14,-999,32.0,3,1,2,3.0,0.0,0.0,0.0,0.0,0.0,0
0,2,3760.55,17,3958.79,3960.31,12.62,B,left,0.32,31,0.6,16,0.78,12,-999.0,-999,-999,99.0,2,1,3,0.0,0.0,0.0,0.0,0.0,0.0,110
0,2,3760.55,18,3973.27,3974.79,15.84,A,right,0.27,37,0.61,16,0.89,11,-999.0,-999,-999,99.0,3,1,2,0.0,0.0,0.0,0.0,0.0,0.0,110
0,2,3760.55,19,3990.96,3992.48,9.33,C,mid,0.75,8,0.68,14,0.85,4,0.55,19,-999,2.0,1,3,2,0.0,-1.0,3.0,-1.0,0.0,-1.0,0
0,2,3760.55,20,4002.16,4003.68,8.23,B,mid,0.75,8,0.65,15,0.73,7,0.63,14,-999,31.0,3,2,1,0.0,-1.0,0.0,0.0,3.0,-1.0,1
0,2,3760.55,21,4012.26,4013.77,15.18,C,left,0.75,9,0.62,14,0.88,5,0.58,20,-999,2.0,2,3,1,0.0,0.0,-3.0,-1.0,3.0,0.0,11
0,2,3760.55,22,4029.3,4030.82,11.31,A,left,0.78,9,0.68,15,0.82,5,0.52,20,-999,1.0,1,3,2,3.0,0.0,3.0,0.0,-3.0,0.0,10
0,2,3760.55,23,4042.48,4044.0,13.29,B,mid,0.72,8,0.68,15,0.88,5,0.58,20,-999,2.0,3,2,1,-3.0,-1.0,3.0,0.0,3.0,0.0,10
0,2,3760.55,24,4057.63,4059.14,13.51,A,right,0.78,9,0.62,14,0.85,4,0.55,19,-999,1.0,3,1,2,3.0,0.0,-3.0,-1.0,0.0,-1.0,11
0,2,3760.55,25,4072.99,4074.5,10.15,B,right,0.72,8,0.68,14,0.85,5,0.55,20,-999,2.0,2,3,1,-3.0,-1.0,3.0,-1.0,0.0,0.0,101
0,2,3760.55,26,4085.0,4086.52,9.02,A,right,0.75,9,0.65,15,0.73,8,0.63,14,-999,31.0,3,2,1,0.0,0.0,0.0,0.0,0.0,0.0,10
0,2,3760.55,27,4095.88,4097.4,11.79,B,mid,0.72,9,0.65,14,0.7,8,0.63,13,-999,32.0,3,2,1,-3.0,0.0,0.0,-1.0,3.0,0.0,111
0,2,3760.55,28,4109.53,4111.04,12.06,A,right,0.75,9,0.65,14,0.73,8,0.63,13,-999,31.0,3,1,2,0.0,0.0,0.0,-1.0,-3.0,-1.0,10
0,2,3760.55,29,4123.45,4124.97,16.02,B,right,0.78,9,0.62,14,0.85,5,0.55,20,-999,2.0,2,3,1,3.0,0.0,-3.0,-1.0,0.0,0.0,100
0,2,3760.55,30,4141.33,4142.85,10.81,B,mid,0.78,9,0.65,15,0.76,8,0.63,14,-999,32.0,1,2,3,3.0,0.0,0.0,0.0,-3.0,-1.0,11
0,2,3760.55,31,4153.99,4155.51,10.23,A,mid,0.75,9,0.65,15,0.82,4,0.52,19,-999,1.0,2,3,1,0.0,0.0,0.0,0.0,-3.0,-1.0,1
0,2,3760.55,32,4166.09,4167.61,6.76,B,right,0.75,8,0.68,15,0.88,5,0.58,20,-999,1.0,1,3,2,0.0,-1.0,3.0,0.0,3.0,0.0,0
0,2,3760.55,33,4174.7,4176.22,10.25,B,left,0.72,9,0.65,15,0.82,4,0.52,19,-999,1.0,3,1,2,-3.0,0.0,0.0,0.0,-3.0,-1.0,100
0,2,3760.55,34,4186.82,4188.33,15.44,C,right,0.72,9,0.62,14,0.85,5,0.55,20,-999,2.0,1,2,3,-3.0,0.0,-3.0,-1.0,0.0,0.0,0
0,2,3760.55,35,4204.11,4205.63,8.82,B,left,0.75,8,0.68,14,0.73,7,0.66,13,-999,32.0,2,1,3,0.0,-1.0,3.0,-1.0,0.0,0.0,10
0,2,3760.55,36,4214.79,4216.31,13.77,B,right,0.72,8,0.65,15,0.85,5,0.55,20,-999,2.0,1,3,2,-3.0,-1.0,0.0,0.0,0.0,0.0,111
0,2,3760.55,37,4230.42,4231.94,15.2,B,mid,0.31,32,0.38,26,0.85,11,-999.0,-999,-999,99.0,1,2,3,0.0,0.0,0.0,0.0,0.0,0.0,10
0,2,3760.55,38,4335.8,4337.32,8.66,B,mid,0.72,9,0.62,15,0.7,8,0.6,14,-999,32.0,3,2,1,-3.0,0.0,-3.0,0.0,3.0,-1.0,100
0,2,3760.55,39,4346.32,4347.83,10.34,A,left,0.75,9,0.65,15,0.73,8,0.63,14,-999,31.0,1,2,3,0.0,0.0,0.0,0.0,0.0,-1.0,101
0,2,3760.55,40,4358.51,4360.03,8.05,A,left,0.72,8,0.65,15,0.7,7,0.63,14,-999,31.0,1,3,2,-3.0,-1.0,0.0,0.0,3.0,-1.0,11
0,2,3760.55,41,4368.43,4369.94,10.99,B,right,0.75,8,0.65,14,0.73,7,0.63,13,-999,32.0,1,3,2,0.0,-1.0,0.0,-1.0,3.0,0.0,11
0,2,3760.55,42,4381.27,4382.79,14.71,C,mid,0.72,9,0.68,14,0.88,5,0.58,20,-999,2.0,3,1,2,-3.0,0.0,3.0,-1.0,3.0,0.0,111
0,2,3760.55,43,4397.83,4399.35,7.51,B,right,0.72,9,0.68,14,0.7,8,0.66,13,-999,32.0,1,3,2,-3.0,0.0,3.0,-1.0,0.0,-1.0,111
0,2,3760.55,44,4407.2,4408.71,9.18,B,left,0.78,9,0.65,14,0.82,4,0.52,19,-999,2.0,2,1,3,3.0,0.0,0.0,-1.0,-3.0,-1.0,10
0,2,3760.55,45,4418.24,4419.76,11.04,B,mid,0.19,52,0.56,17,0.8,12,-999.0,-999,-999,99.0,1,2,3,0.0,0.0,0.0,0.0,0.0,0.0,0
0,2,3760.55,46,4431.14,4432.65,11.42,B,left,0.72,8,0.65,15,0.88,4,0.58,19,-999,2.0,3,1,2,-3.0,-1.0,0.0,0.0,3.0,-1.0,0
0,2,3760.55,47,4444.42,4445.93,11.35,B,mid,0.78,9,0.68,15,0.88,4,0.58,19,-999,1.0,1,2,3,3.0,0.0,3.0,0.0,3.0,-1.0,100
0,2,3760.55,48,4457.63,4459.15,6.16,A,mid,0.78,8,0.68,15,0.88,5,0.58,20,-999,1.0,2,1,3,3.0,-1.0,3.0,0.0,3.0,0.0,101
0,2,3760.55,49,4465.64,4467.16,10.57,A,left,0.72,9,0.62,15,0.7,8,0.6,14,-999,31.0,1,2,3,-3.0,0.0,-3.0,0.0,0.0,-1.0,100
0,2,3760.55,50,4478.07,4479.59,7.44,B,right,0.78,8,0.65,15,0.76,7,0.63,14,-999,32.0,2,3,1,3.0,-1.0,0.0,0.0,-3.0,-1.0,11
0,2,3760.55,51,4487.37,4488.89,22.47,B,mid,0.16,62,0.46,21,0.87,11,-999.0,-999,-999,99.0,3,2,1,0.0,0.0,0.0,0.0,0.0,0.0,11
0,2,3760.55,52,4511.7,4513.21,9.9,C,right,0.75,8,0.62,15,0.88,4,0.58,19,-999,2.0,2,1,3,0.0,-1.0,-3.0,0.0,3.0,-1.0,10
0,2,3760.55,53,4523.44,4524.96,7.07,B,right,0.78,8,0.68,15,0.85,4,0.55,19,-999,1.0,1,3,2,3.0,-1.0,3.0,0.0,0.0,-1.0,10
0,2,3760.55,54,4532.37,4533.89,9.47,A,mid,0.75,9,0.65,14,0.73,8,0.63,13,-999,31.0,2,1,3,0.0,0.0,0.0,-1.0,0.0,0.0,110
0,2,3760.55,55,4543.7,4545.22,10.04,B,right,0.29,34,0.42,23,0.72,13,-999.0,-999,-999,99.0,1,3,2,0.0,0.0,0.0,0.0,0.0,0.0,0
0,2,3760.55,56,4555.6,4557.11,9.55,B,mid,0.78,9,0.62,15,0.76,8,0.6,14,-999,32.0,1,2,3,3.0,0.0,-3.0,0.0,3.0,0.0,110
0,2,3760.55,57,4566.99,4568.51,3.55,A,mid,0.78,9,0.65,14,0.82,5,0.52,20,-999,1.0,2,3,1,3.0,0.0,0.0,-1.0,-3.0,0.0,111
0,2,3760.55,58,4572.41,4573.92,9.6,A,mid,0.78,8,0.62,15,0.76,7,0.6,14,-999,31.0,2,1,3,3.0,-1.0,-3.0,0.0,0.0,0.0,101
0,2,3760.55,59,4583.87,4585.39,6.0,B,mid,0.78,8,0.62,15,0.76,7,0.6,14,-999,32.0,3,2,1,3.0,-1.0,-3.0,0.0,-3.0,-1.0,100
0,2,3760.55,60,4591.74,4593.25,12.89,B,mid,0.27,37,0.47,21,0.86,11,-999.0,-999,-999,99.0,1,2,3,0.0,0.0,0.0,0.0,0.0,0.0,111
0,2,3760.55,61,4606.48,4608.0,8.95,B,mid,0.78,8,0.62,15,0.85,4,0.55,19,-999,1.0,1,2,3,3.0,-1.0,-3.0,0.0,0.0,-1.0,1
0,2,3760.55,62,4617.29,4618.81,10.44,A,right,0.78,9,0.65,14,0.82,4,0.52,19,-999,1.0,3,2,1,3.0,0.0,0.0,-1.0,-3.0,-1.0,0
0,2,3760.55,63,4629.59,4631.11,7.53,A,mid,0.75,9,0.62,15,0.88,4,0.58,19,-999,1.0,2,3,1,0.0,0.0,-3.0,0.0,3.0,-1.0,10
0,2,3760.55,64,4638.97,4640.49,12.72,A,right,0.78,9,0.68,15,0.76,8,0.66,14,-999,31.0,3,1,2,3.0,0.0,3.0,0.0,0.0,0.0,111
0,2,3760.55,65,4653.55,4655.07,8.19,B,mid,0.72,9,0.62,15,0.7,8,0.6,14,-999,32.0,3,2,1,-3.0,0.0,-3.0,0.0,0.0,0.0,110
0,2,3760.55,66,4663.6,4665.11,13.05,B,mid,0.75,9,0.65,14,0.85,4,0.55,19,-999,2.0,1,2,3,0.0,0.0,0.0,-1.0,0.0,-1.0,100
0,2,3760.55,67,4678.51,4680.02,5.79,B,mid,0.78,8,0.62,14,0.76,7,0.6,13,-999,32.0,1,2,3,3.0,-1.0,-3.0,-1.0,0.0,-1.0,0
0,2,3760.55,68,4686.16,4687.67,5.81,B,mid,0.72,9,0.68,15,0.82,5,0.52,20,-999,2.0,1,2,3,-3.0,0.0,3.0,0.0,-3.0,0.0,10
0,2,3760.55,69,4693.82,4695.34,9.41,A,right,0.78,9,0.62,14,0.76,8,0.6,13,-999,31.0,3,1,2,3.0,0.0,-3.0,-1.0,-3.0,0.0,0
0,2,3760.55,70,4705.08,4706.6,10.64,A,mid,0.75,9,0.65,15,0.85,5,0.55,20,-999,1.0,2,3,1,0.0,0.0,0.0,0.0,0.0,0.0,110
0,2,3760.55,71,4717.58,4719.09,14.61,B,mid,0.72,8,0.68,14,0.7,7,0.66,13,-999,31.0,3,2,1,-3.0,-1.0,3.0,-1.0,-3.0,0.0,10
0,2,3760.55,72,4734.06,4735.57,12.16,B,mid,0.75,8,0.62,15,0.88,5,0.58,20,-999,1.0,3,2,1,0.0,-1.0,-3.0,0.0,3.0,0.0,110
0,2,3760.55,73,4748.07,4749.59,8.42,A,right,0.78,8,0.68,15,0.76,7,0.66,14,-999,31.0,3,1,2,3.0,-1.0,3.0,0.0,0.0,0.0,10
0,2,3760.55,74,4758.35,4759.87,9.17,A,mid,0.72,9,0.65,15,0.7,8,0.63,14,-999,31.0,2,1,3,-3.0,0.0,0.0,0.0,-3.0,-1.0,1
0,2,3760.55,75,4769.38,4770.89,11.0,B,mid,0.72,9,0.68,15,0.82,4,0.52,19,-999,1.0,3,2,1,-3.0,0.0,3.0,0.0,-3.0,-1.0,110
0,Estimation3,4935.3,E1,4935.36,4936.87,5.57,A,left,0.75,11,0.65,15,0.85,-999,0.55,20,3,,1,3,2,,,,,,,110
0,Estimation3,4935.3,E2,4942.79,4944.3,11.35,B,mid,0.75,8,0.65,15,0.85,-999,0.55,20,1,2.0,3,2,1,,,,,,,110
0,Estimation3,4935.3,E3,4956.0,4957.52,6.49,B,mid,0.75,8,0.65,15,0.85,-999,0.55,28,3,,3,2,1,,,,,,,11
0,Estimation3,4935.3,E4,4964.35,4965.86,6.23,C,mid,0.75,10,0.65,15,0.85,-999,0.55,28,1,2.0,1,3,2,,,,,,,111
0,Estimation3,4935.3,E5,4972.43,4973.95,8.95,A,right,0.75,10,0.65,15,0.85,-999,0.55,24,3,,3,1,2,,,,,,,100
0,Estimation3,4935.3,E6,4983.24,4984.76,10.36,B,mid,0.75,9,0.65,15,0.85,-999,0.55,24,1,2.0,3,2,1,,,,,,,11
0,Estimation3,4935.3,E7,4995.46,4996.97,10.26,B,mid,0.75,9,0.65,15,0.85,-999,0.55,26,3,,1,2,3,,,,,,,110
0,Estimation3,4935.3,E8,5007.57,5009.08,10.86,C,right,0.75,10,0.65,15,0.85,-999,0.55,26,1,2.0,1,2,3,,,,,,,0
0,Estimation3,4935.3,E9,5020.3,5021.81,7.79,A,right,0.75,10,0.65,15,0.85,-999,0.55,25,3,,3,2,1,,,,,,,111
0,Estimation3,4935.3,E10,5029.94,5031.46,9.42,C,mid,0.75,10,0.65,15,0.85,5,0.55,25,1,2.0,3,1,2,,,,,,,101
0,Estimation3,4935.3,E11,5041.22,5042.74,4.52,A,left,0.75,10,0.65,15,0.85,5,0.55,25,2,1.0,1,2,3,,,,,,,11
0,Estimation3,4935.3,E12,5047.6,5049.12,5.54,C,left,0.75,10,0.65,15,0.85,7,0.55,25,1,2.0,3,2,1,,,,,,,0
0,Estimation3,4935.3,E13,5055.0,5056.52,4.84,A,left,0.75,10,0.65,15,0.85,7,0.55,25,2,1.0,1,3,2,,,,,,,0
0,Estimation3,4935.3,E14,5061.7,5063.22,6.16,C,left,0.75,10,0.65,15,0.85,8,0.55,25,1,2.0,2,3,1,,,,,,,10
0,Estimation3,4935.3,E15,5069.73,5071.25,8.65,C,right,0.75,10,0.65,15,0.85,8,0.55,25,2,1.0,2,1,3,,,,,,,11
0,3,5084.32,1,5084.39,5085.91,12.3,A,right,0.78,10,0.68,15,0.76,9,0.66,14,-999,31.0,3,2,1,3.0,0.0,3.0,0.0,0.0,0.0,111
0,3,5084.32,2,5098.54,5100.05,9.52,A,mid,0.78,10,0.68,15,0.82,8,0.52,25,-999,1.0,2,3,1,3.0,0.0,3.0,0.0,-3.0,0.0,111
0,3,5084.32,3,5109.92,5111.43,13.03,C,right,0.72,9,0.68,14,0.85,8,0.55,25,-999,2.0,2,1,3,-3.0,-1.0,3.0,-1.0,0.0,0.0,111
0,3,5084.32,4,5124.81,5126.33,6.51,A,mid,0.78,9,0.68,15,0.88,8,0.58,25,-999,1.0,2,3,1,3.0,-1.0,3.0,0.0,3.0,0.0,111
0,3,5084.32,5,5133.18,5134.69,19.09,B,mid,0.72,10,0.68,15,0.82,8,0.52,25,-999,2.0,1,2,3,-3.0,0.0,3.0,0.0,-3.0,0.0,11
0,3,5084.32,6,5154.12,5155.64,12.77,C,mid,0.72,10,0.65,15,0.82,7,0.52,24,-999,2.0,3,1,2,-3.0,0.0,0.0,0.0,-3.0,-1.0,111
0,3,5084.32,7,5168.75,5170.27,8.64,C,mid,0.75,10,0.65,14,0.85,7,0.55,24,-999,2.0,1,3,2,0.0,0.0,0.0,-1.0,0.0,-1.0,1
0,3,5084.32,8,5179.25,5180.76,14.48,B,left,0.72,10,0.65,14,0.7,9,0.63,13,-999,32.0,3,1,2,-3.0,0.0,0.0,-1.0,3.0,0.0,10
0,3,5084.32,9,5195.59,5197.11,10.63,A,left,0.78,10,0.62,14,0.76,9,0.6,13,-999,31.0,1,2,3,3.0,0.0,-3.0,-1.0,-3.0,0.0,11
0,3,5084.32,10,5208.09,5209.6,6.1,B,right,0.72,9,0.68,14,0.7,8,0.66,13,-999,31.0,1,3,2,-3.0,-1.0,3.0,-1.0,-3.0,0.0,10
0,3,5084.32,11,5216.05,5217.57,12.22,A,right,0.72,10,0.62,15,0.7,9,0.6,14,-999,31.0,3,1,2,-3.0,0.0,-3.0,0.0,0.0,-1.0,1
0,3,5084.32,12,5230.13,5231.64,8.42,A,mid,0.72,10,0.68,15,0.82,7,0.52,24,-999,1.0,2,3,1,-3.0,0.0,3.0,0.0,-3.0,-1.0,101
0,3,5084.32,13,5240.41,5241.93,21.26,B,mid,0.16,62,0.46,21,0.87,11,-999.0,-999,-999,99.0,3,2,1,0.0,0.0,0.0,0.0,0.0,0.0,110
0,3,5084.32,14,5263.52,5265.03,9.47,C,left,0.75,9,0.62,15,0.88,7,0.58,24,-999,2.0,3,2,1,0.0,-1.0,-3.0,0.0,3.0,-1.0,111
0,3,5084.32,15,5274.85,5276.36,11.12,A,left,0.75,10,0.65,15,0.73,9,0.63,14,-999,31.0,1,2,3,0.0,0.0,0.0,0.0,0.0,-1.0,1
0,3,5084.32,16,5287.83,5289.34,9.95,C,right,0.78,10,0.62,14,0.85,8,0.55,25,-999,2.0,1,2,3,3.0,0.0,-3.0,-1.0,0.0,0.0,0
0,3,5084.32,17,5299.64,5301.16,8.18,B,right,0.72,10,0.62,15,0.7,9,0.6,14,-999,32.0,2,3,1,-3.0,0.0,-3.0,0.0,3.0,-1.0,111
0,3,5084.32,18,5309.69,5311.2,8.01,C,mid,0.72,9,0.65,15,0.88,7,0.58,24,-999,2.0,1,3,2,-3.0,-1.0,0.0,0.0,3.0,-1.0,11
0,3,5084.32,19,5319.55,5321.07,17.82,A,mid,0.75,10,0.65,15,0.85,8,0.55,25,-999,1.0,2,1,3,0.0,0.0,0.0,0.0,0.0,0.0,11
0,3,5084.32,20,5339.23,5340.74,14.54,A,left,0.29,34,0.42,23,0.72,13,-999.0,-999,-999,99.0,1,2,3,0.0,0.0,0.0,0.0,0.0,0.0,110
0,3,5084.32,21,5355.62,5357.14,9.48,A,right,0.75,10,0.65,15,0.73,9,0.63,14,-999,31.0,3,1,2,0.0,0.0,0.0,0.0,0.0,0.0,10
0,3,5084.32,22,5366.95,5368.47,29.08,A,mid,0.32,31,0.6,16,0.78,12,-999.0,-999,-999,99.0,2,1,3,0.0,0.0,0.0,0.0,0.0,0.0,100
0,3,5084.32,23,5397.89,5399.41,33.48,B,mid,0.31,32,0.38,26,0.85,11,-999.0,-999,-999,99.0,1,2,3,0.0,0.0,0.0,0.0,0.0,0.0,11
0,3,5084.32,24,5433.23,5434.75,11.31,A,left,0.78,9,0.68,15,0.85,7,0.55,24,-999,1.0,1,3,2,3.0,-1.0,3.0,0.0,0.0,-1.0,111
0,3,5084.32,25,5446.39,5447.91,10.29,A,mid,0.75,10,0.65,15,0.82,7,0.52,24,-999,1.0,2,3,1,0.0,0.0,0.0,0.0,-3.0,-1.0,11
0,3,5084.32,26,5458.54,5460.05,22.13,B,right,0.24,41,0.37,27,0.76,13,-999.0,-999,-999,99.0,2,3,1,0.0,0.0,0.0,0.0,0.0,0.0,10
0,3,5084.32,27,5482.53,5484.05,6.49,B,mid,0.32,31,0.48,20,0.85,11,-999.0,-999,-999,99.0,3,2,1,0.0,0.0,0.0,0.0,0.0,0.0,101
0,3,5084.32,28,5490.88,5492.39,11.98,A,right,0.78,10,0.65,14,0.82,7,0.52,24,-999,1.0,3,2,1,3.0,0.0,0.0,-1.0,-3.0,-1.0,111
0,3,5084.32,29,5504.71,5506.22,17.38,C,mid,0.78,10,0.65,14,0.82,7,0.52,24,-999,2.0,3,1,2,3.0,0.0,0.0,-1.0,-3.0,-1.0,10
0,3,5084.32,30,5523.95,5525.47,7.21,B,left,0.78,9,0.68,14,0.76,8,0.66,13,-999,32.0,2,1,3,3.0,-1.0,3.0,-1.0,3.0,-1.0,110
0,3,5084.32,31,5533.01,5534.53,15.22,B,right,0.19,52,0.59,16,0.81,12,-999.0,-999,-999,99.0,1,3,2,0.0,0.0,0.0,0.0,0.0,0.0,0
0,3,5084.32,32,5550.07,5551.59,19.32,B,right,0.78,9,0.62,15,0.76,8,0.6,14,-999,32.0,2,3,1,3.0,-1.0,-3.0,0.0,-3.0,-1.0,11
0,3,5084.32,33,5571.25,5572.77,8.85,A,left,0.78,10,0.65,14,0.82,8,0.52,25,-999,1.0,1,2,3,3.0,0.0,0.0,-1.0,-3.0,0.0,11
0,3,5084.32,34,5581.95,5583.46,8.11,C,mid,0.72,10,0.62,14,0.85,8,0.55,25,-999,2.0,3,1,2,-3.0,0.0,-3.0,-1.0,0.0,0.0,110
0,3,5084.32,35,5591.91,5593.43,16.98,A,right,0.75,9,0.65,15,0.73,8,0.63,14,-999,31.0,3,1,2,0.0,-1.0,0.0,0.0,3.0,-1.0,10
0,3,5084.32,36,5610.76,5612.27,8.74,B,right,0.72,10,0.68,14,0.7,9,0.66,13,-999,32.0,1,3,2,-3.0,0.0,3.0,-1.0,0.0,-1.0,1
0,3,5084.32,37,5621.35,5622.87,15.14,A,mid,0.78,10,0.62,15,0.76,9,0.6,14,-999,32.0,2,1,3,3.0,0.0,-3.0,0.0,3.0,0.0,11
0,3,5084.32,38,5649.24,5650.76,11.49,A,left,0.72,10,0.65,15,0.7,9,0.63,14,-999,31.0,1,3,2,-3.0,0.0,0.0,0.0,-3.0,-1.0,110
0,3,5084.32,39,5662.59,5664.11,12.11,A,mid,0.75,9,0.68,14,0.73,8,0.66,13,-999,31.0,2,1,3,0.0,-1.0,3.0,-1.0,0.0,-1.0,100
0,3,5084.32,40,5676.57,5678.08,8.7,B,right,0.78,10,0.65,15,0.76,9,0.63,14,-999,32.0,2,3,1,3.0,0.0,0.0,0.0,0.0,0.0,10
0,3,5084.32,41,5687.11,5688.63,7.48,B,mid,0.72,9,0.62,15,0.7,8,0.6,14,-999,32.0,3,2,1,-3.0,-1.0,-3.0,0.0,-3.0,-1.0,1
0,3,5084.32,42,5696.46,5697.98,11.4,A,mid,0.78,9,0.62,15,0.76,8,0.6,14,-999,31.0,2,1,3,3.0,-1.0,-3.0,0.0,0.0,0.0,10
0,3,5084.32,43,5709.72,5711.24,13.47,B,left,0.72,9,0.68,15,0.88,8,0.58,25,-999,2.0,3,1,2,-3.0,-1.0,3.0,0.0,3.0,0.0,100
0,3,5084.32,44,5725.05,5726.57,14.55,B,mid,0.27,37,0.47,21,0.86,11,-999.0,-999,-999,99.0,1,2,3,0.0,0.0,0.0,0.0,0.0,0.0,100
0,3,5084.32,45,5741.46,5742.98,10.03,B,right,0.72,10,0.62,15,0.7,9,0.6,14,-999,32.0,2,3,1,-3.0,0.0,-3.0,0.0,0.0,0.0,0
0,3,5084.32,46,5753.34,5754.86,6.68,B,mid,0.78,9,0.65,15,0.76,8,0.63,14,-999,32.0,3,2,1,3.0,-1.0,0.0,0.0,-3.0,-1.0,11
0,3,5084.32,47,5761.87,5763.39,12.67,B,right,0.72,10,0.65,15,0.82,7,0.52,24,-999,1.0,1,3,2,-3.0,0.0,0.0,0.0,-3.0,-1.0,0
0,3,5084.32,48,5776.4,5777.92,8.35,B,left,0.75,9,0.68,14,0.85,7,0.55,24,-999,2.0,3,1,2,0.0,-1.0,3.0,-1.0,0.0,-1.0,110
0,3,5084.32,49,5786.61,5788.13,11.08,C,mid,0.72,9,0.65,15,0.85,8,0.55,25,-999,2.0,1,3,2,-3.0,-1.0,0.0,0.0,0.0,0.0,100
0,3,5084.32,50,5799.54,5801.06,8.74,B,right,0.78,9,0.62,14,0.76,8,0.6,13,-999,32.0,1,3,2,3.0,-1.0,-3.0,-1.0,0.0,-1.0,111
0,3,5084.32,51,5810.14,5811.66,11.66,B,right,0.72,10,0.62,14,0.7,9,0.6,13,-999,32.0,2,3,1,-3.0,0.0,-3.0,-1.0,0.0,0.0,111
0,3,5084.32,52,5823.67,5825.19,12.4,C,left,0.75,10,0.62,14,0.88,8,0.58,25,-999,2.0,3,2,1,0.0,0.0,-3.0,-1.0,3.0,0.0,101
0,3,5084.32,53,5837.93,5839.45,6.22,C,left,0.72,10,0.68,14,0.88,8,0.58,25,-999,2.0,3,2,1,-3.0,0.0,3.0,-1.0,3.0,0.0,1
0,3,5084.32,54,5846.01,5847.53,15.94,C,mid,0.28,35,0.67,14,0.78,12,-999.0,-999,-999,99.0,3,1,2,0.0,0.0,0.0,0.0,0.0,0.0,100
0,3,5084.32,55,5863.81,5865.32,12.81,A,mid,0.78,10,0.62,14,0.85,7,0.55,24,-999,1.0,2,1,3,3.0,0.0,-3.0,-1.0,0.0,-1.0,0
0,3,5084.32,56,5878.49,5880.0,6.79,A,mid,0.75,9,0.62,15,0.88,8,0.58,25,-999,1.0,2,3,1,0.0,-1.0,-3.0,0.0,3.0,0.0,111
0,3,5084.32,57,5887.13,5888.65,6.48,A,right,0.78,10,0.68,15,0.88,7,0.58,24,-999,1.0,3,2,1,3.0,0.0,3.0,0.0,3.0,-1.0,111
0,3,5084.32,58,5895.46,5896.98,20.35,B,left,0.75,9,0.68,14,0.73,8,0.66,13,-999,32.0,2,1,3,0.0,-1.0,3.0,-1.0,0.0,0.0,101
0,3,5084.32,59,5917.67,5919.19,7.05,A,mid,0.72,9,0.65,15,0.7,8,0.63,14,-999,31.0,2,3,1,-3.0,-1.0,0.0,0.0,3.0,-1.0,101
0,3,5084.32,60,5926.59,5928.1,11.71,A,left,0.75,10,0.62,15,0.88,7,0.58,24,-999,1.0,1,2,3,0.0,0.0,-3.0,0.0,3.0,-1.0,111
0,3,5084.32,61,5940.17,5941.68,18.05,A,right,0.72,10,0.68,15,0.82,7,0.52,24,-999,1.0,3,1,2,-3.0,0.0,3.0,0.0,-3.0,-1.0,100
0,3,5084.32,62,5960.08,5961.59,17.69,C,mid,0.72,9,0.62,14,0.88,8,0.58,25,-999,2.0,1,3,2,-3.0,-1.0,-3.0,-1.0,3.0,0.0,101
0,3,5084.32,63,5979.64,5981.15,9.77,B,right,0.27,37,0.61,16,0.89,11,-999.0,-999,-999,99.0,1,3,2,0.0,0.0,0.0,0.0,0.0,0.0,100
0,3,5084.32,64,5991.26,5992.78,8.73,B,right,0.75,9,0.68,15,0.88,8,0.58,25,-999,1.0,2,3,1,0.0,-1.0,3.0,0.0,3.0,0.0,101
0,3,5084.32,65,6001.84,6003.36,8.0,B,right,0.75,9,0.62,15,0.73,8,0.6,14,-999,32.0,1,3,2,0.0,-1.0,-3.0,0.0,-3.0,0.0,111
0,3,5084.32,66,6011.69,6013.21,9.35,A,mid,0.75,10,0.65,14,0.73,9,0.63,13,-999,31.0,2,3,1,0.0,0.0,0.0,-1.0,0.0,0.0,10
0,3,5084.32,67,6022.9,6024.42,11.34,B,mid,0.72,10,0.62,14,0.85,8,0.55,25,-999,2.0,3,2,1,-3.0,0.0,-3.0,-1.0,0.0,0.0,0
0,3,5084.32,68,6036.1,6037.62,8.56,A,mid,0.72,9,0.65,15,0.7,8,0.63,14,-999,31.0,2,3,1,-3.0,-1.0,0.0,0.0,3.0,-1.0,111
0,3,5084.32,69,6046.51,6048.03,23.58,B,right,0.19,52,0.56,17,0.8,12,-999.0,-999,-999,99.0,2,3,1,0.0,0.0,0.0,0.0,0.0,0.0,10
0,3,5084.32,70,6071.96,6073.47,9.89,A,left,0.75,10,0.65,14,0.73,9,0.63,13,-999,31.0,1,3,2,0.0,0.0,0.0,-1.0,-3.0,-1.0,11
0,3,5084.32,71,6083.7,6085.22,10.53,A,left,0.72,9,0.65,14,0.7,8,0.63,13,-999,31.0,1,3,2,-3.0,-1.0,0.0,-1.0,3.0,-1.0,0
0,3,5084.32,72,6096.08,6097.6,13.03,C,right,0.75,9,0.65,14,0.73,8,0.63,13,-999,32.0,2,1,3,0.0,-1.0,0.0,-1.0,3.0,0.0,110
0,3,5084.32,73,6110.98,6112.49,13.53,B,left,0.78,10,0.65,15,0.76,9,0.63,14,-999,32.0,2,1,3,3.0,0.0,0.0,0.0,-3.0,-1.0,111
0,3,5084.32,74,6126.35,6127.87,9.07,A,mid,0.78,9,0.62,15,0.85,7,0.55,24,-999,1.0,2,1,3,3.0,-1.0,-3.0,0.0,0.0,-1.0,111
0,3,5084.32,75,6137.28,6138.8,6.1,A,right,0.78,9,0.68,15,0.76,8,0.66,14,-999,31.0,3,1,2,3.0,-1.0,3.0,0.0,0.0,0.0,0
