subject,block,block_onset,trial,fixation_cross_onset,trial_onset,rt,choice,key,pA,mA,pB,mB,pCA,mCA,pCB,mCB,missing,condition,position_A,position_B,position_C,noise_Ap,noise_Am,noise_Bp,noise_Bm,noise_Cp,noise_Cm,attribute_positions
9,Practice,2115.91,P1,2115.95,2117.46,2.23,A,right,0.78,7,0.62,17,0.85,3,0.55,24,-999,2.0,3,1,2,3.0,-2.0,-3.0,2.0,0.0,-1.0,1
9,Practice,2115.91,P2,2120.04,2121.56,3.11,A,left,0.72,7,0.62,16,0.88,5,0.58,26,-999,2.0,1,2,3,-3.0,-2.0,-3.0,1.0,3.0,1.0,10
9,Practice,2115.91,P3,2125.01,2126.53,1.85,C,left,0.75,11,0.68,13,0.85,4,0.55,25,-999,1.0,2,3,1,0.0,2.0,3.0,-2.0,0.0,0.0,110
9,Practice,2115.91,P4,2128.74,2130.26,1.55,B,left,0.75,9,0.65,15,0.88,5,0.58,26,-999,1.0,3,1,2,0.0,0.0,0.0,0.0,3.0,1.0,100
9,Practice,2115.91,P5,2132.14,2133.66,2.35,C,mid,0.72,11,0.62,13,0.85,6,0.55,27,-999,1.0,1,3,2,-3.0,2.0,-3.0,-2.0,0.0,2.0,101
9,Practice,2115.91,P6,2136.36,2137.87,1.56,A,mid,0.78,7,0.62,13,0.82,6,0.52,27,-999,2.0,2,3,1,3.0,-2.0,-3.0,-2.0,-3.0,2.0,110
9,Practice,2115.91,P7,2139.77,2141.29,1.85,A,mid,0.75,7,0.65,17,0.85,5,0.55,26,-999,2.0,2,1,3,0.0,-2.0,0.0,2.0,0.0,1.0,111
9,Practice,2115.91,P8,2143.47,2144.99,2.17,A,right,0.72,8,0.68,15,0.82,6,0.52,27,-999,2.0,3,1,2,-3.0,-1.0,3.0,0.0,-3.0,2.0,110
9,Practice,2115.91,P9,2147.5,2149.02,1.39,C,mid,0.78,8,0.62,16,0.88,5,0.58,26,-999,1.0,3,1,2,3.0,-1.0,-3.0,1.0,3.0,1.0,1
9,Practice,2115.91,P10,2150.75,2152.27,3.26,A,left,0.75,10,0.65,16,0.82,2,0.52,23,-999,2.0,1,2,3,0.0,1.0,0.0,1.0,-3.0,-2.0,101
9,Practice,2115.91,P11,2155.87,2157.38,1.41,A,mid,0.72,8,0.65,15,0.85,5,0.55,26,-999,2.0,2,3,1,-3.0,-1.0,0.0,0.0,0.0,1.0,0
9,Practice,2115.91,P12,2159.13,2160.65,1.81,C,left,0.72,8,0.68,15,0.85,5,0.55,26,-999,1.0,2,3,1,-3.0,-1.0,3.0,0.0,0.0,1.0,101
9,Practice,2115.91,P13,2162.8,2164.31,1.87,C,right,0.78,11,0.68,16,0.88,5,0.58,26,-999,1.0,2,1,3,3.0,2.0,3.0,1.0,3.0,1.0,111
9,Practice,2115.91,P14,2166.53,2168.05,1.66,A,right,0.72,11,0.62,17,0.82,3,0.52,24,-999,2.0,3,2,1,-3.0,2.0,-3.0,2.0,-3.0,-1.0,0
9,Practice,2115.91,P15,2170.05,2171.56,1.58,A,mid,0.78,7,0.68,14,0.88,5,0.58,26,-999,2.0,2,3,1,3.0,-2.0,3.0,-1.0,3.0,1.0,10
9,Practice,2115.91,P16,2173.49,2175.01,1.77,A,mid,0.78,7,0.65,13,0.82,2,0.52,23,-999,2.0,2,1,3,3.0,-2.0,0.0,-2.0,-3.0,-2.0,1
9,Practice,2115.91,P17,2177.13,2178.64,2.1,A,right,0.72,10,0.65,13,0.82,5,0.52,26,-999,2.0,3,2,1,-3.0,1.0,0.0,-2.0,-3.0,1.0,110
9,Practice,2115.91,P18,2181.09,2182.61,1.99,A,right,0.78,7,0.68,13,0.88,2,0.58,23,-999,2.0,3,1,2,3.0,-2.0,3.0,-2.0,3.0,-2.0,10
9,Practice,2115.91,P19,2184.94,2186.46,1.5,C,mid,0.78,11,0.62,15,0.85,4,0.55,25,-999,1.0,3,1,2,3.0,2.0,-3.0,0.0,0.0,0.0,110
9,Practice,2115.91,P20,2188.31,2189.82,1.87,C,mid,0.72,7,0.65,14,0.88,4,0.58,25,-999,1.0,1,3,2,-3.0,-2.0,0.0,-1.0,3.0,0.0,11
9,Practice,2115.91,P21,2192.04,2193.55,1.32,C,mid,0.78,9,0.65,16,0.85,2,0.55,23,-999,1.0,3,1,2,3.0,0.0,0.0,1.0,0.0,-2.0,0
9,Practice,2115.91,P22,2195.22,2196.74,3.41,A,left,0.72,9,0.62,15,0.85,2,0.55,23,-999,1.0,1,3,2,-3.0,0.0,-3.0,0.0,0.0,-2.0,10
9,Practice,2115.91,P23,2200.49,2202.0,2.88,A,right,0.72,7,0.65,13,0.88,3,0.58,24,-999,1.0,3,1,2,-3.0,-2.0,0.0,-2.0,3.0,-1.0,100
9,Practice,2115.91,P24,2205.23,2206.75,3.58,B,left,0.78,7,0.65,13,0.82,5,0.52,26,-999,2.0,2,1,3,3.0,-2.0,0.0,-2.0,-3.0,1.0,10
9,Practice,2115.91,P25,2210.68,2213.11,2.21,A,mid,0.78,10,0.68,13,0.85,4,0.55,25,-999,1.0,2,3,1,3.0,1.0,3.0,-2.0,0.0,0.0,111
9,Estimation1,2401.86,E1,2401.92,2403.44,4.73,A,mid,0.75,11,0.65,15,0.85,-999,0.55,20,3,,2,1,3,,,,,,,11
9,Estimation1,2401.86,E2,2408.5,2410.02,5.74,B,right,0.75,8,0.65,15,0.85,-999,0.55,20,1,2.0,1,3,2,,,,,,,101
9,Estimation1,2401.86,E3,2416.1,2417.61,6.53,A,right,0.75,8,0.65,15,0.85,-999,0.55,28,3,,3,1,2,,,,,,,100
9,Estimation1,2401.86,E4,2424.48,2426.0,3.45,B,right,0.75,6,0.65,15,0.85,-999,0.55,28,1,2.0,2,3,1,,,,,,,101
9,Estimation1,2401.86,E5,2429.78,2431.29,3.1,B,mid,0.75,6,0.65,15,0.85,-999,0.55,32,3,,1,2,3,,,,,,,1
9,Estimation1,2401.86,E6,2434.74,2436.26,3.75,B,left,0.75,7,0.65,15,0.85,-999,0.55,32,1,2.0,2,1,3,,,,,,,101
9,Estimation1,2401.86,E7,2440.36,2441.87,5.04,B,mid,0.75,7,0.65,15,0.85,-999,0.55,34,3,,1,2,3,,,,,,,100
9,Estimation1,2401.86,E8,2447.25,2448.77,2.27,B,right,0.75,8,0.65,15,0.85,-999,0.55,34,1,2.0,2,3,1,,,,,,,100
9,Estimation1,2401.86,E9,2451.39,2452.9,5.59,B,mid,0.75,8,0.65,15,0.85,-999,0.55,35,3,,3,2,1,,,,,,,100
9,Estimation1,2401.86,E10,2458.83,2460.35,2.16,B,right,0.75,8,0.65,15,0.85,4,0.55,35,1,2.0,1,3,2,,,,,,,0
9,Estimation1,2401.86,E11,2462.85,2464.37,3.25,A,left,0.75,8,0.65,15,0.85,4,0.55,35,2,1.0,1,2,3,,,,,,,101
9,Estimation1,2401.86,E12,2467.96,2469.48,2.86,B,left,0.75,8,0.65,15,0.85,5,0.55,35,1,2.0,2,1,3,,,,,,,110
9,Estimation1,2401.86,E13,2472.68,2474.2,2.98,A,mid,0.75,8,0.65,15,0.85,5,0.55,35,2,1.0,2,1,3,,,,,,,11
9,Estimation1,2401.86,E14,2477.55,2479.06,2.12,B,mid,0.75,8,0.65,15,0.85,6,0.55,35,1,2.0,1,2,3,,,,,,,100
9,Estimation1,2401.86,E15,2481.51,2483.03,3.25,A,mid,0.75,8,0.65,15,0.85,6,0.55,35,2,1.0,2,1,3,,,,,,,110
9,1,2489.12,1,2489.19,2490.71,6.01,B,left,0.78,8,0.62,15,0.76,7,0.6,14,-999,32.0,2,1,3,3.0,0.0,-3.0,0.0,3.0,0.0,111
9,1,2489.12,2,2497.06,2498.57,6.37,B,right,0.78,8,0.65,14,0.82,5,0.52,34,-999,1.0,1,3,2,3.0,0.0,0.0,-1.0,-3.0,-1.0,110
9,1,2489.12,3,2505.29,2506.8,6.29,B,right,0.78,8,0.68,15,0.76,7,0.66,14,-999,31.0,1,3,2,3.0,0.0,3.0,0.0,0.0,0.0,111
9,1,2489.12,4,2513.43,2514.95,4.5,B,mid,0.72,7,0.65,15,0.88,5,0.58,34,-999,2.0,3,2,1,-3.0,-1.0,0.0,0.0,3.0,-1.0,111
9,1,2489.12,5,2519.78,2521.3,5.06,B,right,0.78,8,0.65,15,0.76,7,0.63,14,-999,32.0,1,3,2,3.0,0.0,0.0,0.0,0.0,0.0,101
9,1,2489.12,6,2526.7,2528.21,6.02,A,left,0.78,7,0.62,15,0.76,6,0.6,14,-999,32.0,1,2,3,3.0,-1.0,-3.0,0.0,-3.0,-1.0,101
9,1,2489.12,7,2534.58,2536.09,5.83,B,mid,0.72,7,0.62,15,0.7,6,0.6,14,-999,32.0,3,2,1,-3.0,-1.0,-3.0,0.0,-3.0,-1.0,1
9,1,2489.12,8,2542.27,2543.79,6.11,B,right,0.78,7,0.68,15,0.85,5,0.55,34,-999,1.0,1,3,2,3.0,-1.0,3.0,0.0,0.0,-1.0,100
9,1,2489.12,9,2550.24,2551.75,7.43,C,left,0.31,32,0.38,26,0.85,11,-999.0,-999,-999,99.0,2,3,1,0.0,0.0,0.0,0.0,0.0,0.0,101
9,1,2489.12,10,2559.52,2561.03,3.2,B,mid,0.75,7,0.68,14,0.85,5,0.55,34,-999,2.0,3,2,1,0.0,-1.0,3.0,-1.0,0.0,-1.0,111
9,1,2489.12,11,2564.57,2566.08,5.92,A,left,0.72,7,0.62,14,0.88,6,0.58,35,-999,2.0,1,3,2,-3.0,-1.0,-3.0,-1.0,3.0,0.0,101
9,1,2489.12,12,2572.35,2573.86,2.86,B,left,0.72,7,0.68,14,0.85,6,0.55,35,-999,2.0,3,1,2,-3.0,-1.0,3.0,-1.0,0.0,0.0,0
9,1,2489.12,13,2577.06,2578.58,2.76,C,mid,0.32,31,0.48,20,0.85,11,-999.0,-999,-999,99.0,3,1,2,0.0,0.0,0.0,0.0,0.0,0.0,0
9,1,2489.12,14,2581.68,2583.19,4.14,B,left,0.75,7,0.65,14,0.73,6,0.63,13,-999,32.0,3,1,2,0.0,-1.0,0.0,-1.0,3.0,0.0,111
9,1,2489.12,15,2587.68,2589.19,3.94,C,mid,0.75,7,0.68,14,0.73,6,0.66,13,-999,32.0,3,1,2,0.0,-1.0,3.0,-1.0,0.0,0.0,10
9,1,2489.12,16,2593.47,2594.99,4.05,A,right,0.78,7,0.62,15,0.76,6,0.6,14,-999,31.0,3,2,1,3.0,-1.0,-3.0,0.0,0.0,0.0,110
9,1,2489.12,17,2599.37,2600.89,3.43,A,mid,0.75,8,0.65,15,0.85,6,0.55,35,-999,1.0,2,1,3,0.0,0.0,0.0,0.0,0.0,0.0,0
9,1,2489.12,18,2604.65,2606.17,5.41,B,left,0.72,8,0.68,15,0.82,5,0.52,34,-999,1.0,2,1,3,-3.0,0.0,3.0,0.0,-3.0,-1.0,11
9,1,2489.12,19,2611.92,2613.43,5.61,B,left,0.72,8,0.65,14,0.7,7,0.63,13,-999,32.0,2,1,3,-3.0,0.0,0.0,-1.0,3.0,0.0,101
9,1,2489.12,20,2619.38,2620.9,3.08,B,left,0.72,8,0.68,15,0.82,6,0.52,35,-999,2.0,2,1,3,-3.0,0.0,3.0,0.0,-3.0,0.0,1
9,1,2489.12,21,2624.33,2625.85,4.93,A,mid,0.75,8,0.62,15,0.88,5,0.58,34,-999,1.0,2,3,1,0.0,0.0,-3.0,0.0,3.0,-1.0,11
9,1,2489.12,22,2631.11,2632.63,6.32,B,mid,0.72,8,0.65,15,0.7,7,0.63,14,-999,31.0,1,2,3,-3.0,0.0,0.0,0.0,-3.0,-1.0,100
9,1,2489.12,23,2639.29,2640.81,5.97,B,right,0.72,8,0.65,15,0.82,5,0.52,34,-999,2.0,1,3,2,-3.0,0.0,0.0,0.0,-3.0,-1.0,11
9,1,2489.12,24,2647.12,2648.64,6.37,A,left,0.75,8,0.62,14,0.88,6,0.58,35,-999,2.0,1,2,3,0.0,0.0,-3.0,-1.0,3.0,0.0,101
9,1,2489.12,25,2655.35,2656.87,6.15,B,mid,0.75,8,0.65,14,0.85,5,0.55,34,-999,2.0,1,2,3,0.0,0.0,0.0,-1.0,0.0,-1.0,111
9,1,2489.12,26,2663.37,2664.88,3.48,A,mid,0.75,8,0.65,15,0.82,5,0.52,34,-999,1.0,2,1,3,0.0,0.0,0.0,0.0,-3.0,-1.0,101
9,1,2489.12,27,2668.7,2670.22,5.24,A,mid,0.78,7,0.62,14,0.76,6,0.6,13,-999,32.0,2,3,1,3.0,-1.0,-3.0,-1.0,0.0,-1.0,100
9,1,2489.12,28,2675.8,2677.31,3.52,B,left,0.72,7,0.65,14,0.7,6,0.63,13,-999,31.0,2,1,3,-3.0,-1.0,0.0,-1.0,3.0,-1.0,0
9,1,2489.12,29,2681.18,2682.69,7.96,A,mid,0.72,8,0.68,15,0.82,5,0.52,34,-999,1.0,2,3,1,-3.0,0.0,3.0,0.0,-3.0,-1.0,110
9,1,2489.12,30,2690.99,2692.51,6.24,B,mid,0.75,7,0.68,15,0.88,6,0.58,35,-999,1.0,1,2,3,0.0,-1.0,3.0,0.0,3.0,0.0,10
9,1,2489.12,31,2699.09,2700.61,3.84,A,left,0.72,8,0.62,15,0.7,7,0.6,14,-999,32.0,1,3,2,-3.0,0.0,-3.0,0.0,3.0,-1.0,100
9,1,2489.12,32,2704.79,2706.3,5.91,B,left,0.75,7,0.68,14,0.73,6,0.66,13,-999,31.0,3,1,2,0.0,-1.0,3.0,-1.0,0.0,-1.0,110
9,1,2489.12,33,2712.55,2714.07,6.55,A,mid,0.75,8,0.65,14,0.73,7,0.63,13,-999,31.0,2,3,1,0.0,0.0,0.0,-1.0,0.0,0.0,0
9,1,2489.12,34,2720.97,2722.48,6.24,A,mid,0.78,8,0.65,15,0.76,7,0.63,14,-999,32.0,2,1,3,3.0,0.0,0.0,0.0,-3.0,-1.0,111
9,1,2489.12,35,2729.06,2730.58,3.52,C,right,0.19,52,0.59,16,0.81,12,-999.0,-999,-999,99.0,1,2,3,0.0,0.0,0.0,0.0,0.0,0.0,100
9,1,2489.12,36,2734.45,2735.96,3.4,B,mid,0.78,7,0.68,15,0.88,6,0.58,35,-999,1.0,1,2,3,3.0,-1.0,3.0,0.0,3.0,0.0,110
9,1,2489.12,37,2739.71,2741.23,2.6,C,right,0.28,35,0.67,14,0.78,12,-999.0,-999,-999,99.0,1,2,3,0.0,0.0,0.0,0.0,0.0,0.0,11
9,1,2489.12,38,2782.65,2784.16,4.74,B,left,0.78,8,0.65,14,0.82,6,0.52,35,-999,1.0,3,1,2,3.0,0.0,0.0,-1.0,-3.0,0.0,110
9,1,2489.12,39,2789.24,2790.76,3.98,A,mid,0.72,8,0.62,15,0.7,7,0.6,14,-999,32.0,2,1,3,-3.0,0.0,-3.0,0.0,0.0,0.0,110
9,1,2489.12,40,2795.08,2796.59,5.88,C,mid,0.75,7,0.62,15,0.88,6,0.58,35,-999,1.0,1,3,2,0.0,-1.0,-3.0,0.0,3.0,0.0,1
9,1,2489.12,41,2802.81,2804.32,5.9,B,mid,0.75,7,0.65,15,0.73,6,0.63,14,-999,31.0,1,2,3,0.0,-1.0,0.0,0.0,3.0,-1.0,110
9,1,2489.12,42,2810.57,2812.09,5.97,A,right,0.75,8,0.65,15,0.73,7,0.63,14,-999,31.0,3,1,2,0.0,0.0,0.0,0.0,0.0,0.0,10
9,1,2489.12,43,2818.4,2819.92,5.65,B,mid,0.78,8,0.68,15,0.82,6,0.52,35,-999,1.0,3,2,1,3.0,0.0,3.0,0.0,-3.0,0.0,1
9,1,2489.12,44,2825.9,2827.41,3.33,C,right,0.24,41,0.37,27,0.76,13,-999.0,-999,-999,99.0,2,1,3,0.0,0.0,0.0,0.0,0.0,0.0,10
9,1,2489.12,45,2831.08,2832.6,5.79,B,right,0.72,7,0.65,15,0.85,6,0.55,35,-999,2.0,2,3,1,-3.0,-1.0,0.0,0.0,0.0,0.0,11
9,1,2489.12,46,2838.73,2840.24,3.57,C,right,0.16,62,0.46,21,0.87,11,-999.0,-999,-999,99.0,1,2,3,0.0,0.0,0.0,0.0,0.0,0.0,10
9,1,2489.12,47,2844.14,2845.66,3.47,A,left,0.72,8,0.62,14,0.85,6,0.55,35,-999,2.0,1,2,3,-3.0,0.0,-3.0,-1.0,0.0,0.0,11
9,1,2489.12,48,2849.47,2850.99,4.41,A,right,0.78,8,0.62,14,0.85,6,0.55,35,-999,2.0,3,2,1,3.0,0.0,-3.0,-1.0,0.0,0.0,0
9,1,2489.12,49,2855.74,2857.26,5.68,A,mid,0.75,7,0.62,15,0.73,6,0.6,14,-999,32.0,2,1,3,0.0,-1.0,-3.0,0.0,-3.0,0.0,1
9,1,2489.12,50,2863.29,2864.8,5.54,A,mid,0.75,8,0.65,15,0.73,7,0.63,14,-999,31.0,2,1,3,0.0,0.0,0.0,0.0,0.0,-1.0,10
9,1,2489.12,51,2870.68,2872.2,3.75,B,mid,0.78,7,0.68,14,0.76,6,0.66,13,-999,32.0,1,2,3,3.0,-1.0,3.0,-1.0,3.0,-1.0,0
9,1,2489.12,52,2876.28,2877.8,5.56,A,mid,0.78,8,0.62,14,0.76,7,0.6,13,-999,31.0,2,1,3,3.0,0.0,-3.0,-1.0,-3.0,0.0,100
9,1,2489.12,53,2883.7,2885.21,4.88,A,left,0.78,8,0.65,14,0.82,5,0.52,34,-999,2.0,1,2,3,3.0,0.0,0.0,-1.0,-3.0,-1.0,0
9,1,2489.12,54,2890.43,2891.94,3.48,C,left,0.19,52,0.56,17,0.8,12,-999.0,-999,-999,99.0,2,3,1,0.0,0.0,0.0,0.0,0.0,0.0,10
9,1,2489.12,55,2895.78,2897.29,7.22,A,left,0.78,7,0.62,15,0.85,5,0.55,34,-999,1.0,1,2,3,3.0,-1.0,-3.0,0.0,0.0,-1.0,101
9,1,2489.12,56,2904.86,2906.37,4.87,B,right,0.72,7,0.65,15,0.7,6,0.63,14,-999,31.0,1,3,2,-3.0,-1.0,0.0,0.0,3.0,-1.0,111
9,1,2489.12,57,2911.59,2913.1,4.98,B,left,0.72,7,0.65,15,0.7,6,0.63,14,-999,31.0,2,1,3,-3.0,-1.0,0.0,0.0,3.0,-1.0,100
9,1,2489.12,58,2918.42,2919.93,5.17,B,left,0.72,8,0.68,14,0.88,6,0.58,35,-999,2.0,3,1,2,-3.0,0.0,3.0,-1.0,3.0,0.0,110
9,1,2489.12,59,2925.45,2926.97,3.9,C,left,0.27,37,0.61,16,0.89,11,-999.0,-999,-999,99.0,3,2,1,0.0,0.0,0.0,0.0,0.0,0.0,1
9,1,2489.12,60,2931.21,2932.73,4.11,B,left,0.78,8,0.68,15,0.88,5,0.58,34,-999,1.0,3,1,2,3.0,0.0,3.0,0.0,3.0,-1.0,111
9,1,2489.12,61,2937.18,2938.7,3.52,B,mid,0.72,8,0.68,14,0.7,7,0.66,13,-999,32.0,3,2,1,-3.0,0.0,3.0,-1.0,0.0,-1.0,0
9,1,2489.12,62,2942.56,2944.08,1.52,C,right,0.27,37,0.47,21,0.86,11,-999.0,-999,-999,99.0,1,2,3,0.0,0.0,0.0,0.0,0.0,0.0,0
9,1,2489.12,63,2945.93,2947.44,3.21,C,left,0.29,34,0.42,23,0.72,13,-999.0,-999,-999,99.0,2,3,1,0.0,0.0,0.0,0.0,0.0,0.0,110
9,1,2489.12,64,2950.99,2952.51,4.13,B,left,0.72,7,0.68,14,0.7,6,0.66,13,-999,31.0,2,1,3,-3.0,-1.0,3.0,-1.0,-3.0,0.0,101
9,1,2489.12,65,2956.97,2958.49,7.78,C,right,0.72,7,0.68,15,0.88,6,0.58,35,-999,2.0,2,1,3,-3.0,-1.0,3.0,0.0,3.0,0.0,111
9,1,2489.12,66,2966.6,2968.12,5.99,A,left,0.72,8,0.62,14,0.7,7,0.6,13,-999,32.0,1,3,2,-3.0,0.0,-3.0,-1.0,0.0,0.0,10
9,1,2489.12,67,2974.45,2975.97,4.98,A,left,0.72,8,0.62,15,0.7,7,0.6,14,-999,31.0,1,2,3,-3.0,0.0,-3.0,0.0,0.0,-1.0,111
9,1,2489.12,68,2981.28,2982.8,3.84,B,left,0.75,8,0.65,14,0.73,7,0.63,13,-999,31.0,3,1,2,0.0,0.0,0.0,-1.0,-3.0,-1.0,111
9,1,2489.12,69,2986.98,2988.5,8.71,B,mid,0.78,7,0.68,15,0.76,6,0.66,14,-999,31.0,3,2,1,3.0,-1.0,3.0,0.0,0.0,0.0,100
9,1,2489.12,70,2997.54,2999.06,2.56,A,right,0.75,7,0.62,15,0.88,5,0.58,34,-999,2.0,3,1,2,0.0,-1.0,-3.0,0.0,3.0,-1.0,0
9,1,2489.12,71,3001.96,3003.47,3.66,A,left,0.78,8,0.62,14,0.85,5,0.55,34,-999,1.0,1,3,2,3.0,0.0,-3.0,-1.0,0.0,-1.0,110
9,1,2489.12,72,3007.47,3008.99,4.32,B,left,0.72,8,0.65,15,0.82,5,0.52,34,-999,1.0,3,1,2,-3.0,0.0,0.0,0.0,-3.0,-1.0,110
9,1,2489.12,73,3013.67,3015.19,3.75,C,right,0.32,31,0.6,16,0.78,12,-999.0,-999,-999,99.0,2,1,3,0.0,0.0,0.0,0.0,0.0,0.0,110
9,1,2489.12,74,3019.27,3020.79,3.65,B,mid,0.78,7,0.65,15,0.76,6,0.63,14,-999,32.0,3,2,1,3.0,-1.0,0.0,0.0,-3.0,-1.0,110
9,1,2489.12,75,3024.77,3026.28,5.66,A,right,0.72,8,0.62,14,0.85,6,0.55,35,-999,2.0,3,2,1,-3.0,0.0,-3.0,-1.0,0.0,0.0,100
9,Estimation2,3115.78,E1,3115.84,3117.35,2.73,B,left,0.75,11,0.65,15,0.85,-999,0.55,20,3,,2,1,3,,,,,,,110
9,Estimation2,3115.78,E2,3120.42,3121.94,2.37,B,mid,0.75,12,0.65,15,0.85,-999,0.55,20,1,2.0,1,2,3,,,,,,,0
9,Estimation2,3115.78,E3,3124.63,3126.15,2.54,A,right,0.75,12,0.65,15,0.85,-999,0.55,28,3,,3,1,2,,,,,,,1
9,Estimation2,3115.78,E4,3129.03,3130.55,2.58,B,right,0.75,12,0.65,15,0.85,6,0.55,28,1,2.0,1,3,2,,,,,,,1
9,Estimation2,3115.78,E5,3133.47,3134.98,2.18,A,left,0.75,12,0.65,15,0.85,6,0.55,32,2,1.0,1,3,2,,,,,,,0
9,Estimation2,3115.78,E6,3137.5,3139.01,1.84,B,mid,0.75,12,0.65,15,0.85,8,0.55,32,1,2.0,1,2,3,,,,,,,0
9,Estimation2,3115.78,E7,3141.2,3142.71,2.65,A,right,0.75,12,0.65,15,0.85,8,0.55,34,2,1.0,3,1,2,,,,,,,101
9,Estimation2,3115.78,E8,3145.71,3147.23,6.66,C,mid,0.75,12,0.65,15,0.85,9,0.55,34,1,2.0,3,1,2,,,,,,,10
9,Estimation2,3115.78,E9,3154.23,3155.74,4.4,A,right,0.75,12,0.65,15,0.85,9,0.55,33,2,1.0,3,2,1,,,,,,,110
9,Estimation2,3115.78,E10,3160.49,3162.01,5.99,C,mid,0.75,12,0.65,15,0.85,10,0.55,33,1,2.0,3,1,2,,,,,,,110
9,Estimation2,3115.78,E11,3168.34,3169.85,4.05,C,right,0.75,12,0.65,15,0.85,10,0.55,33,2,1.0,1,2,3,,,,,,,101
9,2,3178.05,1,3178.12,3179.63,6.03,A,right,0.78,12,0.68,15,0.76,11,0.66,14,-999,31.0,3,1,2,3.0,0.0,3.0,0.0,0.0,0.0,11
9,2,3178.05,2,3186.0,3187.51,6.17,B,mid,0.72,11,0.68,14,0.85,10,0.55,33,-999,2.0,1,2,3,-3.0,-1.0,3.0,-1.0,0.0,0.0,101
9,2,3178.05,3,3194.03,3195.55,4.96,A,left,0.72,11,0.65,15,0.7,10,0.63,14,-999,31.0,1,3,2,-3.0,-1.0,0.0,0.0,3.0,-1.0,111
9,2,3178.05,4,3200.84,3202.36,2.62,C,right,0.24,41,0.37,27,0.76,13,-999.0,-999,-999,99.0,2,1,3,0.0,0.0,0.0,0.0,0.0,0.0,11
9,2,3178.05,5,3205.33,3206.84,3.99,A,mid,0.78,12,0.65,15,0.76,11,0.63,14,-999,32.0,2,1,3,3.0,0.0,0.0,0.0,0.0,0.0,100
9,2,3178.05,6,3211.17,3212.69,7.69,A,right,0.72,12,0.68,15,0.82,9,0.52,32,-999,1.0,3,2,1,-3.0,0.0,3.0,0.0,-3.0,-1.0,0
9,2,3178.05,7,3220.72,3222.24,4.41,A,mid,0.78,11,0.62,15,0.76,10,0.6,14,-999,31.0,2,3,1,3.0,-1.0,-3.0,0.0,0.0,0.0,111
9,2,3178.05,8,3226.99,3228.5,3.43,A,right,0.72,12,0.62,15,0.7,11,0.6,14,-999,32.0,3,2,1,-3.0,0.0,-3.0,0.0,0.0,0.0,0
9,2,3178.05,9,3232.27,3233.78,5.93,A,mid,0.78,12,0.68,15,0.88,9,0.58,32,-999,1.0,2,1,3,3.0,0.0,3.0,0.0,3.0,-1.0,1
9,2,3178.05,10,3240.05,3241.56,6.14,A,right,0.72,12,0.68,15,0.82,9,0.52,32,-999,1.0,3,2,1,-3.0,0.0,3.0,0.0,-3.0,-1.0,10
9,2,3178.05,11,3248.04,3249.56,4.87,A,right,0.75,11,0.65,15,0.73,10,0.63,14,-999,31.0,3,1,2,0.0,-1.0,0.0,0.0,3.0,-1.0,110
9,2,3178.05,12,3254.78,3256.29,6.04,C,mid,0.72,12,0.62,14,0.85,10,0.55,33,-999,2.0,3,1,2,-3.0,0.0,-3.0,-1.0,0.0,0.0,0
9,2,3178.05,13,3262.67,3264.19,4.22,A,mid,0.75,12,0.65,15,0.82,9,0.52,32,-999,1.0,2,1,3,0.0,0.0,0.0,0.0,-3.0,-1.0,110
9,2,3178.05,14,3268.75,3270.27,4.97,A,right,0.72,12,0.65,15,0.7,11,0.63,14,-999,31.0,3,1,2,-3.0,0.0,0.0,0.0,-3.0,-1.0,110
9,2,3178.05,15,3275.59,3277.1,5.45,A,left,0.72,11,0.68,14,0.7,10,0.66,13,-999,31.0,1,3,2,-3.0,-1.0,3.0,-1.0,-3.0,0.0,0
9,2,3178.05,16,3282.88,3284.4,3.38,A,right,0.75,12,0.65,15,0.73,11,0.63,14,-999,31.0,3,2,1,0.0,0.0,0.0,0.0,0.0,-1.0,1
9,2,3178.05,17,3288.12,3289.63,7.58,B,right,0.72,12,0.68,14,0.7,11,0.66,13,-999,32.0,2,3,1,-3.0,0.0,3.0,-1.0,0.0,-1.0,11
9,2,3178.05,18,3297.55,3299.06,6.9,B,right,0.75,11,0.68,14,0.73,10,0.66,13,-999,32.0,1,3,2,0.0,-1.0,3.0,-1.0,0.0,0.0,10
9,2,3178.05,19,3306.31,3307.83,6.03,A,right,0.78,11,0.68,15,0.85,9,0.55,32,-999,1.0,3,2,1,3.0,-1.0,3.0,0.0,0.0,-1.0,10
9,2,3178.05,20,3314.19,3315.71,4.03,C,mid,0.27,37,0.47,21,0.86,11,-999.0,-999,-999,99.0,3,1,2,0.0,0.0,0.0,0.0,0.0,0.0,11
9,2,3178.05,21,3320.09,3321.6,4.68,A,mid,0.72,12,0.65,14,0.7,11,0.63,13,-999,32.0,2,3,1,-3.0,0.0,0.0,-1.0,3.0,0.0,101
9,2,3178.05,22,3326.62,3328.14,2.86,C,left,0.16,62,0.46,21,0.87,11,-999.0,-999,-999,99.0,3,2,1,0.0,0.0,0.0,0.0,0.0,0.0,10
9,2,3178.05,23,3331.33,3332.85,2.82,A,right,0.78,11,0.62,15,0.76,10,0.6,14,-999,32.0,3,2,1,3.0,-1.0,-3.0,0.0,-3.0,-1.0,111
9,2,3178.05,24,3336.02,3337.53,3.06,C,mid,0.72,11,0.68,15,0.88,10,0.58,33,-999,2.0,3,1,2,-3.0,-1.0,3.0,0.0,3.0,0.0,10
9,2,3178.05,25,3340.93,3342.45,5.67,A,mid,0.72,12,0.62,14,0.7,11,0.6,13,-999,32.0,2,3,1,-3.0,0.0,-3.0,-1.0,0.0,0.0,100
9,2,3178.05,26,3348.46,3349.98,4.22,A,left,0.75,11,0.62,15,0.73,10,0.6,14,-999,32.0,1,2,3,0.0,-1.0,-3.0,0.0,-3.0,0.0,11
9,2,3178.05,27,3354.54,3356.06,4.1,A,mid,0.75,11,0.65,14,0.73,10,0.63,13,-999,32.0,2,3,1,0.0,-1.0,0.0,-1.0,3.0,0.0,1
9,2,3178.05,28,3360.49,3362.01,2.88,A,left,0.78,12,0.62,14,0.85,9,0.55,32,-999,1.0,1,3,2,3.0,0.0,-3.0,-1.0,0.0,-1.0,0
9,2,3178.05,29,3365.22,3366.74,3.44,A,right,0.78,11,0.65,15,0.76,10,0.63,14,-999,32.0,3,1,2,3.0,-1.0,0.0,0.0,-3.0,-1.0,100
9,2,3178.05,30,3370.52,3372.04,4.94,C,right,0.19,52,0.59,16,0.81,12,-999.0,-999,-999,99.0,1,2,3,0.0,0.0,0.0,0.0,0.0,0.0,0
9,2,3178.05,31,3377.32,3378.84,6.41,C,right,0.75,11,0.62,15,0.88,9,0.58,32,-999,2.0,2,1,3,0.0,-1.0,-3.0,0.0,3.0,-1.0,10
9,2,3178.05,32,3385.58,3387.1,4.33,A,left,0.78,12,0.62,14,0.85,10,0.55,33,-999,2.0,1,3,2,3.0,0.0,-3.0,-1.0,0.0,0.0,111
9,2,3178.05,33,3391.78,3393.3,3.75,A,left,0.78,12,0.65,14,0.82,10,0.52,33,-999,1.0,1,2,3,3.0,0.0,0.0,-1.0,-3.0,0.0,10
9,2,3178.05,34,3397.4,3398.91,3.99,A,right,0.78,12,0.65,14,0.82,9,0.52,32,-999,1.0,3,2,1,3.0,0.0,0.0,-1.0,-3.0,-1.0,100
9,2,3178.05,35,3403.24,3404.76,2.82,C,right,0.29,34,0.42,23,0.72,13,-999.0,-999,-999,99.0,1,2,3,0.0,0.0,0.0,0.0,0.0,0.0,101
9,2,3178.05,36,3407.93,3409.44,3.78,A,left,0.78,12,0.62,14,0.76,11,0.6,13,-999,31.0,1,3,2,3.0,0.0,-3.0,-1.0,-3.0,0.0,11
9,2,3178.05,37,3413.56,3415.07,2.82,A,left,0.72,12,0.62,15,0.7,11,0.6,14,-999,32.0,1,3,2,-3.0,0.0,-3.0,0.0,3.0,-1.0,11
9,2,3178.05,38,3461.91,3463.42,4.8,A,right,0.78,12,0.62,15,0.76,11,0.6,14,-999,32.0,3,1,2,3.0,0.0,-3.0,0.0,3.0,0.0,111
9,2,3178.05,39,3468.57,3470.09,3.68,A,left,0.72,12,0.65,15,0.82,9,0.52,32,-999,2.0,1,3,2,-3.0,0.0,0.0,0.0,-3.0,-1.0,111
9,2,3178.05,40,3474.11,3475.62,3.41,C,right,0.32,31,0.6,16,0.78,12,-999.0,-999,-999,99.0,2,1,3,0.0,0.0,0.0,0.0,0.0,0.0,10
9,2,3178.05,41,3479.37,3480.89,4.14,C,right,0.75,11,0.62,15,0.88,10,0.58,33,-999,1.0,1,2,3,0.0,-1.0,-3.0,0.0,3.0,0.0,0
9,2,3178.05,42,3485.37,3486.88,3.32,A,right,0.72,11,0.65,15,0.7,10,0.63,14,-999,31.0,3,1,2,-3.0,-1.0,0.0,0.0,3.0,-1.0,0
9,2,3178.05,43,3490.55,3492.07,4.13,C,right,0.72,11,0.62,14,0.88,10,0.58,33,-999,2.0,1,2,3,-3.0,-1.0,-3.0,-1.0,3.0,0.0,100
9,2,3178.05,44,3496.53,3498.05,5.51,C,right,0.75,11,0.68,15,0.88,10,0.58,33,-999,1.0,2,1,3,0.0,-1.0,3.0,0.0,3.0,0.0,101
9,2,3178.05,45,3503.9,3505.41,4.62,C,right,0.75,12,0.65,14,0.85,9,0.55,32,-999,2.0,1,2,3,0.0,0.0,0.0,-1.0,0.0,-1.0,100
9,2,3178.05,46,3510.38,3511.89,3.65,C,left,0.72,11,0.65,15,0.85,10,0.55,33,-999,2.0,2,3,1,-3.0,-1.0,0.0,0.0,0.0,0.0,11
9,2,3178.05,47,3515.89,3517.41,5.58,C,left,0.75,11,0.68,14,0.85,9,0.55,32,-999,2.0,3,2,1,0.0,-1.0,3.0,-1.0,0.0,-1.0,11
9,2,3178.05,48,3523.32,3524.84,3.4,A,mid,0.78,11,0.62,15,0.85,9,0.55,32,-999,1.0,2,1,3,3.0,-1.0,-3.0,0.0,0.0,-1.0,10
9,2,3178.05,49,3528.59,3530.1,3.71,A,left,0.78,11,0.68,15,0.76,10,0.66,14,-999,31.0,1,3,2,3.0,-1.0,3.0,0.0,0.0,0.0,10
9,2,3178.05,50,3534.15,3535.67,3.43,A,mid,0.78,11,0.62,14,0.76,10,0.6,13,-999,32.0,2,1,3,3.0,-1.0,-3.0,-1.0,0.0,-1.0,110
9,2,3178.05,51,3539.43,3540.95,4.14,C,mid,0.31,32,0.38,26,0.85,11,-999.0,-999,-999,99.0,1,3,2,0.0,0.0,0.0,0.0,0.0,0.0,0
9,2,3178.05,52,3545.43,3546.95,4.56,C,right,0.78,11,0.68,15,0.88,10,0.58,33,-999,1.0,1,2,3,3.0,-1.0,3.0,0.0,3.0,0.0,110
9,2,3178.05,53,3551.85,3553.36,3.37,A,mid,0.75,11,0.68,14,0.73,10,0.66,13,-999,31.0,2,3,1,0.0,-1.0,3.0,-1.0,0.0,-1.0,111
9,2,3178.05,54,3557.06,3558.58,6.15,C,right,0.19,52,0.56,17,0.8,12,-999.0,-999,-999,99.0,2,1,3,0.0,0.0,0.0,0.0,0.0,0.0,101
9,2,3178.05,55,3565.08,3566.59,4.37,A,right,0.75,12,0.65,15,0.73,11,0.63,14,-999,31.0,3,2,1,0.0,0.0,0.0,0.0,0.0,0.0,100
9,2,3178.05,56,3571.31,3572.82,2.42,C,right,0.75,12,0.62,14,0.88,10,0.58,33,-999,2.0,1,2,3,0.0,0.0,-3.0,-1.0,3.0,0.0,111
9,2,3178.05,57,3575.59,3577.11,5.17,A,left,0.75,12,0.65,14,0.73,11,0.63,13,-999,31.0,1,2,3,0.0,0.0,0.0,-1.0,0.0,0.0,1
9,2,3178.05,58,3582.62,3584.14,4.38,A,right,0.78,12,0.65,14,0.82,9,0.52,32,-999,2.0,3,2,1,3.0,0.0,0.0,-1.0,-3.0,-1.0,0
9,2,3178.05,59,3588.85,3590.37,6.11,C,left,0.27,37,0.61,16,0.89,11,-999.0,-999,-999,99.0,2,3,1,0.0,0.0,0.0,0.0,0.0,0.0,10
9,2,3178.05,60,3596.82,3598.33,8.0,A,right,0.78,12,0.68,15,0.82,10,0.52,33,-999,1.0,3,1,2,3.0,0.0,3.0,0.0,-3.0,0.0,111
9,2,3178.05,61,3606.68,3608.19,4.32,A,right,0.72,12,0.62,15,0.7,11,0.6,14,-999,31.0,3,2,1,-3.0,0.0,-3.0,0.0,0.0,-1.0,110
9,2,3178.05,62,3612.84,3614.36,3.56,A,left,0.78,12,0.65,15,0.76,11,0.63,14,-999,32.0,1,2,3,3.0,0.0,0.0,0.0,-3.0,-1.0,100
9,2,3178.05,63,3618.26,3619.77,5.09,C,right,0.28,35,0.67,14,0.78,12,-999.0,-999,-999,99.0,1,2,3,0.0,0.0,0.0,0.0,0.0,0.0,0
9,2,3178.05,64,3625.21,3626.72,4.21,A,left,0.72,11,0.65,14,0.7,10,0.63,13,-999,31.0,1,2,3,-3.0,-1.0,0.0,-1.0,3.0,-1.0,10
9,2,3178.05,65,3631.27,3632.79,3.57,C,mid,0.72,12,0.62,14,0.85,10,0.55,33,-999,2.0,3,1,2,-3.0,0.0,-3.0,-1.0,0.0,0.0,0
9,2,3178.05,66,3636.7,3638.22,4.04,A,mid,0.72,12,0.68,15,0.82,10,0.52,33,-999,2.0,2,3,1,-3.0,0.0,3.0,0.0,-3.0,0.0,110
9,2,3178.05,67,3642.6,3644.12,3.11,A,right,0.75,12,0.65,14,0.73,11,0.63,13,-999,31.0,3,2,1,0.0,0.0,0.0,-1.0,-3.0,-1.0,10
9,2,3178.05,68,3647.57,3649.08,6.38,A,right,0.75,12,0.62,15,0.88,9,0.58,32,-999,1.0,3,2,1,0.0,0.0,-3.0,0.0,3.0,-1.0,110
9,2,3178.05,69,3655.8,3657.31,3.62,A,right,0.72,12,0.65,15,0.82,9,0.52,32,-999,1.0,3,1,2,-3.0,0.0,0.0,0.0,-3.0,-1.0,10
9,2,3178.05,70,3661.28,3662.79,5.78,C,right,0.72,12,0.68,14,0.88,10,0.58,33,-999,2.0,2,1,3,-3.0,0.0,3.0,-1.0,3.0,0.0,1
9,2,3178.05,71,3668.91,3670.42,7.97,B,mid,0.78,11,0.68,14,0.76,10,0.66,13,-999,32.0,3,2,1,3.0,-1.0,3.0,-1.0,3.0,-1.0,110
9,2,3178.05,72,3678.74,3680.25,4.7,A,left,0.72,11,0.62,15,0.7,10,0.6,14,-999,32.0,1,3,2,-3.0,-1.0,-3.0,0.0,-3.0,-1.0,110
9,2,3178.05,73,3685.3,3686.82,2.0,C,left,0.72,11,0.65,15,0.88,9,0.58,32,-999,2.0,3,2,1,-3.0,-1.0,0.0,0.0,3.0,-1.0,110
9,2,3178.05,74,3689.17,3690.68,5.78,A,right,0.75,12,0.65,15,0.85,10,0.55,33,-999,1.0,3,2,1,0.0,0.0,0.0,0.0,0.0,0.0,11
9,2,3178.05,75,3696.8,3698.32,4.83,C,mid,0.32,31,0.48,20,0.85,11,-999.0,-999,-999,99.0,1,3,2,0.0,0.0,0.0,0.0,0.0,0.0,111
9,Estimation3,3771.76,E1,3771.82,3773.34,2.95,A,right,0.75,11,0.65,15,0.85,-999,0.55,20,3,,3,1,2,,,,,,,100
9,Estimation3,3771.76,E2,3776.62,3778.14,3.03,B,mid,0.75,8,0.65,15,0.85,-999,0.55,20,1,2.0,3,2,1,,,,,,,11
9,Estimation3,3771.76,E3,3781.51,3783.02,2.9,B,mid,0.75,8,0.65,15,0.85,-999,0.55,28,3,,1,2,3,,,,,,,110
9,Estimation3,3771.76,E4,3786.25,3787.77,4.47,B,mid,0.75,10,0.65,15,0.85,-999,0.55,28,1,2.0,1,2,3,,,,,,,0
9,Estimation3,3771.76,E5,3792.58,3794.1,3.78,A,right,0.75,10,0.65,15,0.85,-999,0.55,32,3,,3,2,1,,,,,,,111
9,Estimation3,3771.76,E6,3798.23,3799.75,2.79,C,mid,0.75,9,0.65,15,0.85,-999,0.55,32,1,2.0,3,1,2,,,,,,,101
9,Estimation3,3771.76,E7,3802.88,3804.4,3.34,B,mid,0.75,9,0.65,15,0.85,-999,0.55,30,3,,1,2,3,,,,,,,11
9,Estimation3,3771.76,E8,3808.08,3809.6,3.56,C,left,0.75,10,0.65,15,0.85,-999,0.55,30,1,2.0,3,2,1,,,,,,,0
9,Estimation3,3771.76,E9,3813.51,3815.03,3.98,A,left,0.75,10,0.65,15,0.85,-999,0.55,29,3,,1,3,2,,,,,,,0
9,Estimation3,3771.76,E10,3819.34,3820.86,2.99,B,right,0.75,10,0.65,15,0.85,5,0.55,29,1,2.0,2,3,1,,,,,,,10
9,Estimation3,3771.76,E11,3824.19,3825.71,4.24,A,mid,0.75,10,0.65,15,0.85,5,0.55,30,2,1.0,2,1,3,,,,,,,11
9,Estimation3,3771.76,E12,3830.29,3831.81,3.01,C,mid,0.75,10,0.65,15,0.85,7,0.55,30,1,2.0,1,3,2,,,,,,,100
9,Estimation3,3771.76,E13,3835.15,3836.67,2.45,A,right,0.75,10,0.65,15,0.85,7,0.55,30,2,1.0,3,2,1,,,,,,,101
9,Estimation3,3771.76,E14,3839.45,3840.97,7.9,B,mid,0.75,10,0.65,15,0.85,8,0.55,30,1,2.0,1,2,3,,,,,,,101
9,Estimation3,3771.76,E15,3849.22,3850.73,1.95,A,right,0.75,10,0.65,15,0.85,8,0.55,30,2,1.0,3,2,1,,,,,,,10
9,3,3856.61,1,3856.68,3858.2,7.09,C,right,0.16,62,0.46,21,0.87,11,-999.0,-999,-999,99.0,1,2,3,0.0,0.0,0.0,0.0,0.0,0.0,11
9,3,3856.61,2,3865.63,3867.14,4.81,C,mid,0.19,52,0.56,17,0.8,12,-999.0,-999,-999,99.0,3,1,2,0.0,0.0,0.0,0.0,0.0,0.0,111
9,3,3856.61,3,3872.29,3873.81,5.13,C,mid,0.72,10,0.62,14,0.85,8,0.55,30,-999,2.0,1,3,2,-3.0,0.0,-3.0,-1.0,0.0,0.0,1
9,3,3856.61,4,3879.27,3880.79,2.96,A,right,0.78,10,0.62,14,0.85,7,0.55,29,-999,1.0,3,1,2,3.0,0.0,-3.0,-1.0,0.0,-1.0,10
9,3,3856.61,5,3884.09,3885.61,5.71,A,left,0.75,10,0.62,15,0.88,7,0.58,29,-999,1.0,1,2,3,0.0,0.0,-3.0,0.0,3.0,-1.0,11
9,3,3856.61,6,3891.65,3893.17,15.1,A,left,0.78,10,0.68,15,0.88,7,0.58,29,-999,1.0,1,3,2,3.0,0.0,3.0,0.0,3.0,-1.0,10
9,3,3856.61,7,3908.61,3910.13,8.84,C,mid,0.29,34,0.42,23,0.72,13,-999.0,-999,-999,99.0,3,1,2,0.0,0.0,0.0,0.0,0.0,0.0,1
9,3,3856.61,8,3919.31,3920.83,4.1,C,left,0.78,10,0.62,14,0.85,8,0.55,30,-999,2.0,2,3,1,3.0,0.0,-3.0,-1.0,0.0,0.0,101
9,3,3856.61,9,3925.26,3926.77,8.94,B,mid,0.78,9,0.65,15,0.76,8,0.63,14,-999,32.0,3,2,1,3.0,-1.0,0.0,0.0,-3.0,-1.0,110
9,3,3856.61,10,3936.05,3937.57,3.58,A,right,0.72,10,0.65,15,0.82,7,0.52,29,-999,1.0,3,2,1,-3.0,0.0,0.0,0.0,-3.0,-1.0,111
9,3,3856.61,11,3941.49,3943.0,1.84,C,right,0.72,10,0.68,14,0.88,8,0.58,30,-999,2.0,1,2,3,-3.0,0.0,3.0,-1.0,3.0,0.0,1
9,3,3856.61,12,3945.19,3946.7,4.52,B,mid,0.78,9,0.68,15,0.88,8,0.58,30,-999,1.0,1,2,3,3.0,-1.0,3.0,0.0,3.0,0.0,0
9,3,3856.61,13,3951.57,3953.08,4.04,A,mid,0.75,10,0.65,15,0.73,9,0.63,14,-999,31.0,2,3,1,0.0,0.0,0.0,0.0,0.0,0.0,111
9,3,3856.61,14,3957.47,3958.98,3.14,A,left,0.75,9,0.62,15,0.73,8,0.6,14,-999,32.0,1,3,2,0.0,-1.0,-3.0,0.0,-3.0,0.0,11
9,3,3856.61,15,3962.46,3963.98,4.18,A,mid,0.72,10,0.62,15,0.7,9,0.6,14,-999,32.0,2,1,3,-3.0,0.0,-3.0,0.0,3.0,-1.0,11
9,3,3856.61,16,3968.49,3970.01,5.3,C,right,0.32,31,0.6,16,0.78,12,-999.0,-999,-999,99.0,1,2,3,0.0,0.0,0.0,0.0,0.0,0.0,110
9,3,3856.61,17,3975.66,3977.17,4.11,A,right,0.75,9,0.68,15,0.88,8,0.58,30,-999,1.0,3,1,2,0.0,-1.0,3.0,0.0,3.0,0.0,10
9,3,3856.61,18,3981.62,3983.14,4.1,A,mid,0.78,10,0.65,14,0.82,7,0.52,29,-999,1.0,2,1,3,3.0,0.0,0.0,-1.0,-3.0,-1.0,100
9,3,3856.61,19,3987.59,3989.1,1.86,C,right,0.72,9,0.62,14,0.88,8,0.58,30,-999,2.0,1,2,3,-3.0,-1.0,-3.0,-1.0,3.0,0.0,11
9,3,3856.61,20,3991.3,3992.82,5.06,C,mid,0.27,37,0.61,16,0.89,11,-999.0,-999,-999,99.0,1,3,2,0.0,0.0,0.0,0.0,0.0,0.0,111
9,3,3856.61,21,3998.22,3999.73,12.24,C,left,0.19,52,0.59,16,0.81,12,-999.0,-999,-999,99.0,2,3,1,0.0,0.0,0.0,0.0,0.0,0.0,11
9,3,3856.61,22,4012.31,4013.83,3.72,C,left,0.32,31,0.48,20,0.85,11,-999.0,-999,-999,99.0,2,3,1,0.0,0.0,0.0,0.0,0.0,0.0,10
9,3,3856.61,23,4017.89,4019.41,6.07,A,right,0.75,10,0.65,14,0.73,9,0.63,13,-999,31.0,3,2,1,0.0,0.0,0.0,-1.0,0.0,0.0,101
9,3,3856.61,24,4025.83,4027.34,5.88,C,left,0.28,35,0.67,14,0.78,12,-999.0,-999,-999,99.0,3,2,1,0.0,0.0,0.0,0.0,0.0,0.0,111
9,3,3856.61,25,4033.57,4035.09,2.99,A,right,0.78,10,0.65,15,0.76,9,0.63,14,-999,32.0,3,1,2,3.0,0.0,0.0,0.0,-3.0,-1.0,10
9,3,3856.61,26,4038.42,4039.94,3.88,A,mid,0.75,9,0.65,14,0.73,8,0.63,13,-999,32.0,2,1,3,0.0,-1.0,0.0,-1.0,3.0,0.0,110
9,3,3856.61,27,4044.15,4045.67,4.96,C,mid,0.24,41,0.37,27,0.76,13,-999.0,-999,-999,99.0,1,3,2,0.0,0.0,0.0,0.0,0.0,0.0,0
9,3,3856.61,28,4050.97,4052.48,4.04,A,mid,0.75,9,0.62,15,0.88,7,0.58,29,-999,2.0,2,3,1,0.0,-1.0,-3.0,0.0,3.0,-1.0,11
9,3,3856.61,29,4056.87,4058.38,2.76,A,left,0.78,9,0.62,14,0.76,8,0.6,13,-999,32.0,1,2,3,3.0,-1.0,-3.0,-1.0,0.0,-1.0,11
9,3,3856.61,30,4061.48,4063.0,3.88,B,left,0.72,10,0.68,14,0.7,9,0.66,13,-999,32.0,3,1,2,-3.0,0.0,3.0,-1.0,0.0,-1.0,110
9,3,3856.61,31,4067.23,4068.75,3.05,A,right,0.78,10,0.62,15,0.76,9,0.6,14,-999,32.0,3,1,2,3.0,0.0,-3.0,0.0,3.0,0.0,10
9,3,3856.61,32,4072.13,4073.64,3.81,A,left,0.72,9,0.65,15,0.7,8,0.63,14,-999,31.0,1,3,2,-3.0,-1.0,0.0,0.0,3.0,-1.0,1
9,3,3856.61,33,4077.79,4079.31,6.52,A,mid,0.72,10,0.62,14,0.7,9,0.6,13,-999,32.0,2,1,3,-3.0,0.0,-3.0,-1.0,0.0,0.0,11
9,3,3856.61,34,4086.17,4087.69,3.35,C,mid,0.27,37,0.47,21,0.86,11,-999.0,-999,-999,99.0,1,3,2,0.0,0.0,0.0,0.0,0.0,0.0,110
9,3,3856.61,35,4091.39,4092.9,2.6,A,mid,0.72,10,0.62,15,0.7,9,0.6,14,-999,32.0,2,1,3,-3.0,0.0,-3.0,0.0,0.0,0.0,100
9,3,3856.61,36,4095.85,4097.37,4.78,A,mid,0.72,10,0.65,14,0.7,9,0.63,13,-999,32.0,2,3,1,-3.0,0.0,0.0,-1.0,3.0,0.0,10
9,3,3856.61,37,4102.5,4104.02,3.65,A,right,0.75,9,0.65,15,0.73,8,0.63,14,-999,31.0,3,2,1,0.0,-1.0,0.0,0.0,3.0,-1.0,1
9,3,3856.61,38,4159.27,4160.78,4.52,A,mid,0.78,9,0.62,15,0.76,8,0.6,14,-999,32.0,2,1,3,3.0,-1.0,-3.0,0.0,-3.0,-1.0,10
9,3,3856.61,39,4165.65,4167.16,3.98,B,left,0.78,9,0.68,14,0.76,8,0.66,13,-999,32.0,3,1,2,3.0,-1.0,3.0,-1.0,3.0,-1.0,100
9,3,3856.61,40,4171.48,4172.99,3.76,A,left,0.78,9,0.62,15,0.85,7,0.55,29,-999,1.0,1,2,3,3.0,-1.0,-3.0,0.0,0.0,-1.0,100
9,3,3856.61,41,4177.09,4178.61,3.85,A,mid,0.72,9,0.65,15,0.7,8,0.63,14,-999,31.0,2,3,1,-3.0,-1.0,0.0,0.0,3.0,-1.0,0
9,3,3856.61,42,4182.79,4184.31,4.18,A,right,0.72,9,0.68,14,0.7,8,0.66,13,-999,31.0,3,2,1,-3.0,-1.0,3.0,-1.0,-3.0,0.0,11
9,3,3856.61,43,4188.82,4190.34,4.36,A,left,0.72,10,0.62,15,0.7,9,0.6,14,-999,31.0,1,3,2,-3.0,0.0,-3.0,0.0,0.0,-1.0,0
9,3,3856.61,44,4195.04,4196.55,4.1,A,right,0.78,10,0.65,15,0.76,9,0.63,14,-999,32.0,3,1,2,3.0,0.0,0.0,0.0,0.0,0.0,110
9,3,3856.61,45,4200.99,4202.5,2.43,C,mid,0.72,9,0.68,15,0.88,8,0.58,30,-999,2.0,1,3,2,-3.0,-1.0,3.0,0.0,3.0,0.0,100
9,3,3856.61,46,4205.27,4206.78,5.62,B,right,0.75,9,0.68,14,0.85,7,0.55,29,-999,2.0,1,3,2,0.0,-1.0,3.0,-1.0,0.0,-1.0,111
9,3,3856.61,47,4212.75,4214.27,4.81,A,mid,0.78,10,0.65,14,0.82,7,0.52,29,-999,2.0,2,3,1,3.0,0.0,0.0,-1.0,-3.0,-1.0,111
9,3,3856.61,48,4219.41,4220.93,4.07,A,right,0.75,10,0.65,15,0.85,8,0.55,30,-999,1.0,3,2,1,0.0,0.0,0.0,0.0,0.0,0.0,101
9,3,3856.61,49,4225.34,4226.86,8.67,A,right,0.72,10,0.68,15,0.82,7,0.52,29,-999,1.0,3,2,1,-3.0,0.0,3.0,0.0,-3.0,-1.0,1
9,3,3856.61,50,4235.87,4237.39,3.81,A,right,0.75,10,0.65,15,0.73,9,0.63,14,-999,31.0,3,1,2,0.0,0.0,0.0,0.0,0.0,-1.0,100
9,3,3856.61,51,4241.54,4243.06,2.86,A,mid,0.78,9,0.62,15,0.76,8,0.6,14,-999,31.0,2,1,3,3.0,-1.0,-3.0,0.0,0.0,0.0,0
9,3,3856.61,52,4246.25,4247.77,6.17,B,right,0.78,10,0.68,15,0.82,8,0.52,30,-999,1.0,2,3,1,3.0,0.0,3.0,0.0,-3.0,0.0,111
9,3,3856.61,53,4254.29,4255.8,5.04,A,right,0.72,9,0.65,14,0.7,8,0.63,13,-999,31.0,3,2,1,-3.0,-1.0,0.0,-1.0,3.0,-1.0,111
9,3,3856.61,54,4261.18,4262.7,4.42,B,left,0.72,10,0.68,15,0.82,8,0.52,30,-999,2.0,2,1,3,-3.0,0.0,3.0,0.0,-3.0,0.0,101
9,3,3856.61,55,4267.46,4268.98,5.24,B,right,0.75,9,0.68,14,0.73,8,0.66,13,-999,31.0,2,3,1,0.0,-1.0,3.0,-1.0,0.0,-1.0,101
9,3,3856.61,56,4274.56,4276.08,4.16,B,mid,0.78,9,0.68,15,0.85,7,0.55,29,-999,1.0,1,2,3,3.0,-1.0,3.0,0.0,0.0,-1.0,111
9,3,3856.61,57,4280.58,4282.09,5.77,A,right,0.75,9,0.62,15,0.88,8,0.58,30,-999,1.0,3,1,2,0.0,-1.0,-3.0,0.0,3.0,0.0,100
9,3,3856.61,58,4288.21,4289.72,4.58,A,left,0.75,10,0.65,14,0.73,9,0.63,13,-999,31.0,1,3,2,0.0,0.0,0.0,-1.0,-3.0,-1.0,101
9,3,3856.61,59,4294.64,4296.15,2.7,C,mid,0.72,9,0.68,14,0.85,8,0.55,30,-999,2.0,1,3,2,-3.0,-1.0,3.0,-1.0,0.0,0.0,100
9,3,3856.61,60,4299.19,4300.7,8.34,A,mid,0.78,10,0.68,15,0.76,9,0.66,14,-999,31.0,2,3,1,3.0,0.0,3.0,0.0,0.0,0.0,101
9,3,3856.61,61,4309.38,4310.9,5.17,A,left,0.72,9,0.62,15,0.7,8,0.6,14,-999,32.0,1,3,2,-3.0,-1.0,-3.0,0.0,-3.0,-1.0,111
9,3,3856.61,62,4316.41,4317.93,4.03,A,mid,0.72,10,0.65,15,0.82,7,0.52,29,-999,2.0,2,3,1,-3.0,0.0,0.0,0.0,-3.0,-1.0,10
9,3,3856.61,63,4322.3,4323.81,5.09,A,right,0.75,10,0.65,14,0.85,7,0.55,29,-999,2.0,3,2,1,0.0,0.0,0.0,-1.0,0.0,-1.0,0
9,3,3856.61,64,4329.24,4330.76,9.31,C,left,0.31,32,0.38,26,0.85,11,-999.0,-999,-999,99.0,2,3,1,0.0,0.0,0.0,0.0,0.0,0.0,111
9,3,3856.61,65,4340.41,4341.92,4.77,B,right,0.72,10,0.68,15,0.82,7,0.52,29,-999,1.0,2,3,1,-3.0,0.0,3.0,0.0,-3.0,-1.0,10
9,3,3856.61,66,4347.04,4348.55,3.7,B,right,0.75,9,0.68,14,0.73,8,0.66,13,-999,32.0,1,3,2,0.0,-1.0,3.0,-1.0,0.0,0.0,11
9,3,3856.61,67,4352.59,4354.1,2.92,A,left,0.72,10,0.65,15,0.7,9,0.63,14,-999,31.0,1,3,2,-3.0,0.0,0.0,0.0,-3.0,-1.0,0
9,3,3856.61,68,4357.35,4358.87,1.54,C,right,0.75,10,0.62,14,0.88,8,0.58,30,-999,2.0,2,1,3,0.0,0.0,-3.0,-1.0,3.0,0.0,110
9,3,3856.61,69,4360.75,4362.27,3.79,A,mid,0.75,10,0.65,15,0.82,7,0.52,29,-999,1.0,2,1,3,0.0,0.0,0.0,0.0,-3.0,-1.0,111
9,3,3856.61,70,4366.4,4367.91,3.6,B,left,0.78,9,0.68,15,0.76,8,0.66,14,-999,31.0,2,1,3,3.0,-1.0,3.0,0.0,0.0,0.0,111
9,3,3856.61,71,4371.86,4373.38,4.91,A,right,0.78,10,0.65,14,0.82,8,0.52,30,-999,1.0,3,1,2,3.0,0.0,0.0,-1.0,-3.0,0.0,0
9,3,3856.61,72,4378.63,4380.14,2.2,C,left,0.72,10,0.62,14,0.85,8,0.55,30,-999,2.0,2,3,1,-3.0,0.0,-3.0,-1.0,0.0,0.0,10
9,3,3856.61,73,4382.69,4384.21,3.34,C,left,0.72,9,0.65,15,0.85,8,0.55,30,-999,2.0,3,2,1,-3.0,-1.0,0.0,0.0,0.0,0.0,11
9,3,3856.61,74,4387.89,4389.41,5.68,A,left,0.78,10,0.62,14,0.76,9,0.6,13,-999,31.0,1,2,3,3.0,0.0,-3.0,-1.0,-3.0,0.0,1
9,3,3856.61,75,4395.44,4396.96,9.25,B,left,0.72,9,0.65,15,0.88,7,0.58,29,-999,2.0,2,1,3,-3.0,-1.0,0.0,0.0,3.0,-1.0,0
