subject,block,block_onset,trial,fixation_cross_onset,trial_onset,rt,choice,key,pA,mA,pB,mB,pCA,mCA,pCB,mCB,missing,condition,position_A,position_B,position_C,noise_Ap,noise_Am,noise_Bp,noise_Bm,noise_Cp,noise_Cm,attribute_positions
13,Practice,2680.93,P1,2680.98,2682.49,32.42,C,mid,0.78,7,0.62,17,0.85,3,0.55,24,-999,2.0,3,1,2,3.0,-2.0,-3.0,2.0,0.0,-1.0,1
13,Practice,2680.93,P2,2715.27,2716.78,15.94,C,right,0.72,7,0.62,16,0.88,5,0.58,26,-999,2.0,1,2,3,-3.0,-2.0,-3.0,1.0,3.0,1.0,10
13,Practice,2680.93,P3,2733.06,2734.58,7.32,A,mid,0.75,11,0.68,13,0.85,4,0.55,25,-999,1.0,2,3,1,0.0,2.0,3.0,-2.0,0.0,0.0,110
13,Practice,2680.93,P4,2742.26,2743.77,11.22,B,left,0.75,9,0.65,15,0.88,5,0.58,26,-999,1.0,3,1,2,0.0,0.0,0.0,0.0,3.0,1.0,100
13,Practice,2680.93,P5,2755.34,2756.85,11.75,A,left,0.72,11,0.62,13,0.85,6,0.55,27,-999,1.0,1,3,2,-3.0,2.0,-3.0,-2.0,0.0,2.0,101
13,Practice,2680.93,P6,2768.95,2770.47,7.43,C,left,0.78,7,0.62,13,0.82,6,0.52,27,-999,2.0,2,3,1,3.0,-2.0,-3.0,-2.0,-3.0,2.0,110
13,Practice,2680.93,P7,2778.23,2779.75,10.4,C,right,0.75,7,0.65,17,0.85,5,0.55,26,-999,2.0,2,1,3,0.0,-2.0,0.0,2.0,0.0,1.0,111
13,Practice,2680.93,P8,2790.49,2792.01,23.71,C,mid,0.72,8,0.68,15,0.82,6,0.52,27,-999,2.0,3,1,2,-3.0,-1.0,3.0,0.0,-3.0,2.0,110
13,Practice,2680.93,P9,2816.05,2817.57,12.24,B,left,0.78,8,0.62,16,0.88,5,0.58,26,-999,1.0,3,1,2,3.0,-1.0,-3.0,1.0,3.0,1.0,1
13,Practice,2680.93,P10,2830.15,2831.66,6.65,C,right,0.75,10,0.65,16,0.82,2,0.52,23,-999,2.0,1,2,3,0.0,1.0,0.0,1.0,-3.0,-2.0,101
13,Practice,2680.93,P11,2838.66,2840.18,4.78,C,left,0.72,8,0.65,15,0.85,5,0.55,26,-999,2.0,2,3,1,-3.0,-1.0,0.0,0.0,0.0,1.0,0
13,Practice,2680.93,P12,2845.29,2846.81,11.45,B,right,0.72,8,0.68,15,0.85,5,0.55,26,-999,1.0,2,3,1,-3.0,-1.0,3.0,0.0,0.0,1.0,101
13,Practice,2680.93,P13,2858.6,2860.12,16.88,A,mid,0.78,11,0.68,16,0.88,5,0.58,26,-999,1.0,2,1,3,3.0,2.0,3.0,1.0,3.0,1.0,111
13,Practice,2680.93,P14,2877.35,2878.86,8.91,B,mid,0.72,11,0.62,17,0.82,3,0.52,24,-999,2.0,3,2,1,-3.0,2.0,-3.0,2.0,-3.0,-1.0,0
13,Practice,2680.93,P15,2888.11,2889.63,16.27,B,right,0.78,7,0.68,14,0.88,5,0.58,26,-999,2.0,2,3,1,3.0,-2.0,3.0,-1.0,3.0,1.0,10
13,Practice,2680.93,P16,2906.24,2907.76,9.54,C,right,0.78,7,0.65,13,0.82,2,0.52,23,-999,2.0,2,1,3,3.0,-2.0,0.0,-2.0,-3.0,-2.0,1
13,Practice,2680.93,P17,2917.64,2919.15,13.24,C,left,0.72,10,0.65,13,0.82,5,0.52,26,-999,2.0,3,2,1,-3.0,1.0,0.0,-2.0,-3.0,1.0,110
13,Practice,2680.93,P18,2932.73,2934.25,8.94,C,mid,0.78,7,0.68,13,0.88,2,0.58,23,-999,2.0,3,1,2,3.0,-2.0,3.0,-2.0,3.0,-2.0,10
13,Practice,2680.93,P19,2943.53,2945.04,11.0,A,right,0.78,11,0.62,15,0.85,4,0.55,25,-999,1.0,3,1,2,3.0,2.0,-3.0,0.0,0.0,0.0,110
13,Practice,2680.93,P20,2956.37,2957.89,13.3,B,right,0.72,7,0.65,14,0.88,4,0.58,25,-999,1.0,1,3,2,-3.0,-2.0,0.0,-1.0,3.0,0.0,11
13,Practice,2680.93,P21,2971.52,2973.03,9.64,B,left,0.78,9,0.65,16,0.85,2,0.55,23,-999,1.0,3,1,2,3.0,0.0,0.0,1.0,0.0,-2.0,0
13,Practice,2680.93,P22,2983.02,2984.53,10.74,B,right,0.72,9,0.62,15,0.85,2,0.55,23,-999,1.0,1,3,2,-3.0,0.0,-3.0,0.0,0.0,-2.0,10
13,Practice,2680.93,P23,2995.61,2997.13,10.83,B,left,0.72,7,0.65,13,0.88,3,0.58,24,-999,1.0,3,1,2,-3.0,-2.0,0.0,-2.0,3.0,-1.0,100
13,Practice,2680.93,P24,3008.31,3009.82,13.86,C,right,0.78,7,0.65,13,0.82,5,0.52,26,-999,2.0,2,1,3,3.0,-2.0,0.0,-2.0,-3.0,1.0,10
13,Practice,2680.93,P25,3024.02,3025.54,23.43,A,mid,0.78,10,0.68,13,0.85,4,0.55,25,-999,1.0,2,3,1,3.0,1.0,3.0,-2.0,0.0,0.0,111
13,Estimation1,3226.27,E1,3226.35,3227.87,17.98,B,left,0.75,11,0.65,15,0.85,-999,0.55,20,3,,2,1,3,,,,,,,11
13,Estimation1,3226.27,E2,3246.2,3247.71,7.39,C,mid,0.75,12,0.65,15,0.85,-999,0.55,20,1,2.0,1,3,2,,,,,,,101
13,Estimation1,3226.27,E3,3255.45,3256.96,14.56,A,right,0.75,12,0.65,15,0.85,-999,0.55,18,3,,3,1,2,,,,,,,100
13,Estimation1,3226.27,E4,3271.86,3273.37,15.69,C,left,0.75,12,0.65,15,0.85,6,0.55,18,1,2.0,2,3,1,,,,,,,101
13,Estimation1,3226.27,E5,3289.4,3290.92,7.46,A,left,0.75,12,0.65,15,0.85,6,0.55,17,2,1.0,1,2,3,,,,,,,1
13,Estimation1,3226.27,E6,3298.73,3300.25,9.36,B,left,0.75,12,0.65,15,0.85,8,0.55,17,1,2.0,2,1,3,,,,,,,101
13,Estimation1,3226.27,E7,3309.94,3311.46,9.38,A,left,0.75,12,0.65,15,0.85,8,0.55,18,2,1.0,1,2,3,,,,,,,100
13,Estimation1,3226.27,E8,3321.17,3322.69,12.95,B,right,0.75,12,0.65,15,0.85,9,0.55,18,1,2.0,2,3,1,,,,,,,100
13,Estimation1,3226.27,E9,3335.99,3337.5,13.04,A,right,0.75,12,0.65,15,0.85,9,0.55,18,2,1.0,3,2,1,,,,,,,100
13,Estimation1,3226.27,E10,3350.88,3352.4,18.63,C,mid,0.75,12,0.65,15,0.85,10,0.55,18,1,2.0,1,3,2,,,,,,,0
13,Estimation1,3226.27,E11,3371.38,3372.89,8.19,A,left,0.75,12,0.65,15,0.85,10,0.55,18,2,1.0,1,2,3,,,,,,,101
13,1,3384.14,1,3384.22,3385.74,20.61,A,right,0.78,12,0.62,14,0.85,10,0.55,18,-999,2.0,3,1,2,3.0,0.0,-3.0,-1.0,0.0,0.0,110
13,1,3384.14,2,3406.7,3408.21,40.95,B,mid,0.28,35,0.67,14,0.78,12,-999.0,-999,-999,99.0,3,2,1,0.0,0.0,0.0,0.0,0.0,0.0,101
13,1,3384.14,3,3449.5,3451.02,8.88,B,right,0.78,11,0.68,15,0.76,10,0.66,14,-999,31.0,1,3,2,3.0,-1.0,3.0,0.0,0.0,0.0,0
13,1,3384.14,4,3460.25,3461.76,31.83,B,right,0.75,11,0.68,14,0.85,9,0.55,17,-999,2.0,1,3,2,0.0,-1.0,3.0,-1.0,0.0,-1.0,0
13,1,3384.14,5,3493.94,3495.45,23.6,B,left,0.72,12,0.68,14,0.7,11,0.66,13,-999,32.0,2,1,3,-3.0,0.0,3.0,-1.0,0.0,-1.0,111
13,1,3384.14,6,3519.4,3520.91,20.25,A,left,0.72,12,0.62,15,0.7,11,0.6,14,-999,32.0,1,3,2,-3.0,0.0,-3.0,0.0,3.0,-1.0,110
13,1,3384.14,7,3541.51,3543.02,21.21,A,left,0.78,12,0.65,14,0.82,10,0.52,18,-999,1.0,1,3,2,3.0,0.0,0.0,-1.0,-3.0,0.0,111
13,1,3384.14,8,3564.56,3566.08,20.57,A,right,0.72,12,0.62,14,0.85,10,0.55,18,-999,2.0,3,2,1,-3.0,0.0,-3.0,-1.0,0.0,0.0,111
13,1,3384.14,9,3586.99,3588.51,23.13,A,left,0.72,12,0.62,14,0.7,11,0.6,13,-999,32.0,1,3,2,-3.0,0.0,-3.0,-1.0,0.0,0.0,101
13,1,3384.14,10,3611.98,3613.5,25.27,A,left,0.75,12,0.62,15,0.88,9,0.58,17,-999,1.0,1,2,3,0.0,0.0,-3.0,0.0,3.0,-1.0,101
13,1,3384.14,11,3639.11,3640.62,29.43,A,right,0.27,37,0.61,16,0.89,11,-999.0,-999,-999,99.0,3,2,1,0.0,0.0,0.0,0.0,0.0,0.0,1
13,1,3384.14,12,3670.4,3671.91,16.23,C,mid,0.75,11,0.62,15,0.88,10,0.58,18,-999,1.0,1,3,2,0.0,-1.0,-3.0,0.0,3.0,0.0,100
13,1,3384.14,13,3688.49,3690.01,19.6,B,right,0.72,11,0.62,15,0.7,10,0.6,14,-999,32.0,2,3,1,-3.0,-1.0,-3.0,0.0,-3.0,-1.0,101
13,1,3384.14,14,3709.95,3711.47,20.08,A,right,0.75,12,0.62,14,0.88,10,0.58,18,-999,2.0,3,2,1,0.0,0.0,-3.0,-1.0,3.0,0.0,111
13,1,3384.14,15,3731.9,3733.41,20.2,A,left,0.78,11,0.68,15,0.85,9,0.55,17,-999,1.0,1,3,2,3.0,-1.0,3.0,0.0,0.0,-1.0,101
13,1,3384.14,16,3753.95,3755.47,39.92,C,mid,0.78,12,0.68,15,0.88,9,0.58,17,-999,1.0,3,1,2,3.0,0.0,3.0,0.0,3.0,-1.0,0
13,1,3384.14,17,3795.72,3797.24,27.75,B,left,0.72,12,0.65,15,0.7,11,0.63,14,-999,31.0,3,1,2,-3.0,0.0,0.0,0.0,-3.0,-1.0,0
13,1,3384.14,18,3825.33,3826.85,24.27,B,left,0.75,11,0.68,14,0.73,10,0.66,13,-999,31.0,3,1,2,0.0,-1.0,3.0,-1.0,0.0,-1.0,111
13,1,3384.14,19,3851.46,3852.97,23.45,B,left,0.78,11,0.68,15,0.88,10,0.58,18,-999,1.0,3,1,2,3.0,-1.0,3.0,0.0,3.0,0.0,10
13,1,3384.14,20,3876.77,3878.28,31.7,C,left,0.72,12,0.62,15,0.7,11,0.6,14,-999,32.0,3,2,1,-3.0,0.0,-3.0,0.0,0.0,0.0,110
13,1,3384.14,21,3910.32,3911.84,32.55,A,mid,0.78,12,0.68,15,0.82,10,0.52,18,-999,1.0,2,1,3,3.0,0.0,3.0,0.0,-3.0,0.0,0
13,1,3384.14,22,3944.73,3946.24,26.88,B,left,0.72,12,0.68,15,0.82,10,0.52,18,-999,2.0,2,1,3,-3.0,0.0,3.0,0.0,-3.0,0.0,11
13,1,3384.14,23,3973.47,3974.98,16.68,B,left,0.72,11,0.65,15,0.88,9,0.58,17,-999,2.0,2,1,3,-3.0,-1.0,0.0,0.0,3.0,-1.0,101
13,1,3384.14,24,3992.01,3993.53,21.3,A,mid,0.78,12,0.62,14,0.85,9,0.55,17,-999,1.0,2,1,3,3.0,0.0,-3.0,-1.0,0.0,-1.0,1
13,1,3384.14,25,4015.17,4016.69,13.45,B,right,0.72,11,0.68,15,0.88,10,0.58,18,-999,2.0,2,3,1,-3.0,-1.0,3.0,0.0,3.0,0.0,11
13,1,3384.14,26,4030.48,4032.0,13.97,B,mid,0.75,11,0.62,15,0.73,10,0.6,14,-999,32.0,1,2,3,0.0,-1.0,-3.0,0.0,-3.0,0.0,100
13,1,3384.14,27,4046.33,4047.85,13.9,B,right,0.75,11,0.68,14,0.73,10,0.66,13,-999,32.0,1,3,2,0.0,-1.0,3.0,-1.0,0.0,0.0,11
13,1,3384.14,28,4062.09,4063.61,13.83,B,mid,0.75,12,0.65,14,0.73,11,0.63,13,-999,31.0,1,2,3,0.0,0.0,0.0,-1.0,0.0,0.0,101
13,1,3384.14,29,4077.77,4079.28,26.85,B,mid,0.72,11,0.65,15,0.7,10,0.63,14,-999,31.0,1,2,3,-3.0,-1.0,0.0,0.0,3.0,-1.0,111
13,1,3384.14,30,4106.48,4107.99,22.26,B,left,0.75,12,0.65,15,0.85,10,0.55,18,-999,1.0,2,1,3,0.0,0.0,0.0,0.0,0.0,0.0,101
13,1,3384.14,31,4130.59,4132.1,26.2,C,left,0.75,11,0.62,15,0.88,9,0.58,17,-999,2.0,2,3,1,0.0,-1.0,-3.0,0.0,3.0,-1.0,100
13,1,3384.14,32,4158.64,4160.16,17.04,B,left,0.72,12,0.68,15,0.82,9,0.52,17,-999,1.0,2,1,3,-3.0,0.0,3.0,0.0,-3.0,-1.0,0
13,1,3384.14,33,4177.54,4179.05,22.96,A,mid,0.78,12,0.65,14,0.82,9,0.52,17,-999,1.0,2,3,1,3.0,0.0,0.0,-1.0,-3.0,-1.0,110
13,1,3384.14,34,4202.35,4203.86,16.3,A,left,0.72,12,0.65,15,0.82,9,0.52,17,-999,1.0,1,2,3,-3.0,0.0,0.0,0.0,-3.0,-1.0,10
13,1,3384.14,35,4220.51,4222.02,19.84,B,right,0.72,11,0.65,15,0.7,10,0.63,14,-999,31.0,1,3,2,-3.0,-1.0,0.0,0.0,3.0,-1.0,100
13,1,3384.14,36,4242.2,4243.72,44.85,A,right,0.27,37,0.47,21,0.86,11,-999.0,-999,-999,99.0,3,1,2,0.0,0.0,0.0,0.0,0.0,0.0,110
13,1,3384.14,37,4288.9,4290.42,31.05,C,left,0.72,11,0.62,14,0.88,10,0.58,18,-999,2.0,2,3,1,-3.0,-1.0,-3.0,-1.0,3.0,0.0,0
13,1,3384.14,38,4398.13,4399.65,22.45,B,left,0.75,12,0.65,15,0.73,11,0.63,14,-999,31.0,2,1,3,0.0,0.0,0.0,0.0,0.0,-1.0,111
13,1,3384.14,39,4422.44,4423.96,36.7,B,mid,0.78,11,0.65,15,0.76,10,0.63,14,-999,32.0,1,2,3,3.0,-1.0,0.0,0.0,-3.0,-1.0,100
13,1,3384.14,40,4461.0,4462.51,48.57,C,right,0.29,34,0.42,23,0.72,13,-999.0,-999,-999,99.0,1,2,3,0.0,0.0,0.0,0.0,0.0,0.0,110
13,1,3384.14,41,4511.43,4512.95,33.19,A,left,0.72,12,0.68,14,0.88,10,0.58,18,-999,2.0,1,2,3,-3.0,0.0,3.0,-1.0,3.0,0.0,11
13,1,3384.14,42,4546.49,4548.0,33.2,B,left,0.72,12,0.62,15,0.7,11,0.6,14,-999,31.0,3,1,2,-3.0,0.0,-3.0,0.0,0.0,-1.0,110
13,1,3384.14,43,4581.54,4583.06,24.16,B,left,0.75,12,0.65,14,0.73,11,0.63,13,-999,31.0,2,1,3,0.0,0.0,0.0,-1.0,-3.0,-1.0,110
13,1,3384.14,44,4607.55,4609.07,42.21,A,left,0.24,41,0.37,27,0.76,13,-999.0,-999,-999,99.0,1,3,2,0.0,0.0,0.0,0.0,0.0,0.0,1
13,1,3384.14,45,4651.62,4653.14,23.3,B,mid,0.72,11,0.65,15,0.85,10,0.55,18,-999,2.0,1,2,3,-3.0,-1.0,0.0,0.0,0.0,0.0,110
13,1,3384.14,46,4676.78,4678.3,34.26,B,left,0.75,11,0.68,15,0.88,10,0.58,18,-999,1.0,3,1,2,0.0,-1.0,3.0,0.0,3.0,0.0,10
13,1,3384.14,47,4712.9,4714.42,19.91,C,left,0.72,12,0.62,14,0.85,10,0.55,18,-999,2.0,3,2,1,-3.0,0.0,-3.0,-1.0,0.0,0.0,1
13,1,3384.14,48,4734.66,4736.18,37.7,C,right,0.32,31,0.48,20,0.85,11,-999.0,-999,-999,99.0,2,1,3,0.0,0.0,0.0,0.0,0.0,0.0,10
13,1,3384.14,49,4774.21,4775.73,33.2,C,left,0.16,62,0.46,21,0.87,11,-999.0,-999,-999,99.0,2,3,1,0.0,0.0,0.0,0.0,0.0,0.0,11
13,1,3384.14,50,4809.27,4810.79,31.82,A,left,0.78,11,0.62,15,0.76,10,0.6,14,-999,31.0,1,2,3,3.0,-1.0,-3.0,0.0,0.0,0.0,10
13,1,3384.14,51,4842.94,4844.46,11.81,B,mid,0.75,11,0.65,14,0.73,10,0.63,13,-999,32.0,1,2,3,0.0,-1.0,0.0,-1.0,3.0,0.0,11
13,1,3384.14,52,4856.61,4858.12,15.27,A,right,0.78,12,0.68,15,0.76,11,0.66,14,-999,31.0,3,2,1,3.0,0.0,3.0,0.0,0.0,0.0,0
13,1,3384.14,53,4873.73,4875.25,16.68,B,left,0.72,12,0.65,14,0.7,11,0.63,13,-999,32.0,2,1,3,-3.0,0.0,0.0,-1.0,3.0,0.0,1
13,1,3384.14,54,4892.28,4893.79,16.6,B,left,0.78,12,0.65,15,0.76,11,0.63,14,-999,32.0,2,1,3,3.0,0.0,0.0,0.0,0.0,0.0,10
13,1,3384.14,55,4910.74,4912.25,28.78,C,right,0.75,12,0.65,14,0.85,9,0.55,17,-999,2.0,1,2,3,0.0,0.0,0.0,-1.0,0.0,-1.0,0
13,1,3384.14,56,4941.38,4942.89,32.15,B,left,0.78,12,0.65,15,0.76,11,0.63,14,-999,32.0,2,1,3,3.0,0.0,0.0,0.0,-3.0,-1.0,100
13,1,3384.14,57,4975.38,4976.9,24.8,A,left,0.78,12,0.62,15,0.76,11,0.6,14,-999,32.0,1,2,3,3.0,0.0,-3.0,0.0,3.0,0.0,0
13,1,3384.14,58,5002.04,5003.56,23.61,A,mid,0.78,12,0.65,14,0.82,9,0.52,17,-999,2.0,2,3,1,3.0,0.0,0.0,-1.0,-3.0,-1.0,10
13,1,3384.14,59,5027.52,5029.03,20.96,C,right,0.31,32,0.38,26,0.85,11,-999.0,-999,-999,99.0,1,2,3,0.0,0.0,0.0,0.0,0.0,0.0,101
13,1,3384.14,60,5050.34,5051.86,15.89,B,right,0.78,11,0.68,14,0.76,10,0.66,13,-999,32.0,1,3,2,3.0,-1.0,3.0,-1.0,3.0,-1.0,111
13,1,3384.14,61,5068.09,5069.6,15.01,B,left,0.72,11,0.68,14,0.7,10,0.66,13,-999,31.0,2,1,3,-3.0,-1.0,3.0,-1.0,-3.0,0.0,100
13,1,3384.14,62,5084.97,5086.48,26.31,B,left,0.72,12,0.65,15,0.82,9,0.52,17,-999,2.0,3,1,2,-3.0,0.0,0.0,0.0,-3.0,-1.0,110
13,1,3384.14,63,5113.14,5114.66,15.23,B,mid,0.32,31,0.6,16,0.78,12,-999.0,-999,-999,99.0,3,2,1,0.0,0.0,0.0,0.0,0.0,0.0,1
13,1,3384.14,64,5130.24,5131.75,37.36,B,left,0.19,52,0.59,16,0.81,12,-999.0,-999,-999,99.0,3,1,2,0.0,0.0,0.0,0.0,0.0,0.0,111
13,1,3384.14,65,5169.46,5170.97,18.69,B,mid,0.75,11,0.65,15,0.73,10,0.63,14,-999,31.0,3,2,1,0.0,-1.0,0.0,0.0,3.0,-1.0,0
13,1,3384.14,66,5190.0,5191.52,13.46,B,mid,0.78,11,0.62,15,0.76,10,0.6,14,-999,32.0,1,2,3,3.0,-1.0,-3.0,0.0,-3.0,-1.0,0
13,1,3384.14,67,5205.33,5206.84,11.14,B,right,0.78,11,0.62,14,0.76,10,0.6,13,-999,32.0,2,3,1,3.0,-1.0,-3.0,-1.0,0.0,-1.0,110
13,1,3384.14,68,5218.32,5219.84,33.75,A,mid,0.19,52,0.56,17,0.8,12,-999.0,-999,-999,99.0,2,1,3,0.0,0.0,0.0,0.0,0.0,0.0,101
13,1,3384.14,69,5253.93,5255.45,23.66,B,left,0.72,12,0.68,15,0.82,9,0.52,17,-999,1.0,2,1,3,-3.0,0.0,3.0,0.0,-3.0,-1.0,111
13,1,3384.14,70,5279.45,5280.97,17.65,B,right,0.75,12,0.65,15,0.73,11,0.63,14,-999,31.0,1,3,2,0.0,0.0,0.0,0.0,0.0,0.0,10
13,1,3384.14,71,5298.97,5300.48,22.54,A,left,0.78,11,0.62,15,0.85,9,0.55,17,-999,1.0,1,2,3,3.0,-1.0,-3.0,0.0,0.0,-1.0,111
13,1,3384.14,72,5323.36,5324.87,21.91,B,left,0.72,11,0.68,14,0.85,10,0.55,18,-999,2.0,3,1,2,-3.0,-1.0,3.0,-1.0,0.0,0.0,111
13,1,3384.14,73,5347.13,5348.65,22.54,A,right,0.78,12,0.62,14,0.76,11,0.6,13,-999,31.0,3,2,1,3.0,0.0,-3.0,-1.0,-3.0,0.0,100
13,1,3384.14,74,5371.53,5373.04,27.27,A,right,0.75,12,0.65,15,0.82,9,0.52,17,-999,1.0,3,1,2,0.0,0.0,0.0,0.0,-3.0,-1.0,0
13,1,3384.14,75,5400.65,5402.17,25.08,B,right,0.72,11,0.65,14,0.7,10,0.63,13,-999,31.0,1,3,2,-3.0,-1.0,0.0,-1.0,3.0,-1.0,110
13,Estimation2,5522.54,E1,5522.59,5524.11,3.95,B,left,0.75,11,0.65,15,0.85,-999,0.55,20,3,,3,1,2,,,,,,,110
13,Estimation2,5522.54,E2,5528.39,5529.91,6.3,C,right,0.75,12,0.65,15,0.85,-999,0.55,20,1,2.0,2,1,3,,,,,,,110
13,Estimation2,5522.54,E3,5536.56,5538.07,9.67,B,mid,0.75,12,0.65,15,0.85,-999,0.55,18,3,,3,2,1,,,,,,,110
13,Estimation2,5522.54,E4,5548.09,5549.6,7.1,B,mid,0.75,13,0.65,15,0.85,-999,0.55,18,1,2.0,3,2,1,,,,,,,100
13,Estimation2,5522.54,E5,5557.05,5558.57,11.56,A,mid,0.75,13,0.65,15,0.85,-999,0.55,19,3,,2,1,3,,,,,,,110
13,Estimation2,5522.54,E6,5570.46,5571.98,5.63,C,right,0.75,13,0.65,15,0.85,7,0.55,19,1,2.0,1,2,3,,,,,,,0
13,Estimation2,5522.54,E7,5577.94,5579.46,3.94,A,right,0.75,13,0.65,15,0.85,7,0.55,19,2,1.0,3,1,2,,,,,,,1
13,Estimation2,5522.54,E8,5583.74,5585.26,7.24,C,mid,0.75,13,0.65,15,0.85,9,0.55,19,1,2.0,1,3,2,,,,,,,1
13,Estimation2,5522.54,E9,5592.84,5594.36,9.09,A,left,0.75,13,0.65,15,0.85,9,0.55,19,2,1.0,1,3,2,,,,,,,0
13,Estimation2,5522.54,E10,5603.79,5605.3,8.45,B,mid,0.75,13,0.65,15,0.85,10,0.55,19,1,2.0,1,2,3,,,,,,,0
13,Estimation2,5522.54,E11,5614.1,5615.61,8.2,A,right,0.75,13,0.65,15,0.85,10,0.55,19,2,1.0,3,1,2,,,,,,,101
13,Estimation2,5522.54,E12,5624.16,5625.68,7.06,C,mid,0.75,13,0.65,15,0.85,11,0.55,19,1,2.0,3,1,2,,,,,,,10
13,Estimation2,5522.54,E13,5633.09,5634.61,9.98,C,left,0.75,13,0.65,15,0.85,11,0.55,19,2,1.0,3,2,1,,,,,,,110
13,2,5649.32,1,5649.39,5650.9,10.38,B,mid,0.72,13,0.62,14,0.7,12,0.6,13,-999,32.0,3,2,1,-3.0,0.0,-3.0,-1.0,0.0,0.0,110
13,2,5649.32,2,5661.63,5663.15,10.59,A,mid,0.78,13,0.68,15,0.76,12,0.66,14,-999,31.0,2,3,1,3.0,0.0,3.0,0.0,0.0,0.0,110
13,2,5649.32,3,5674.08,5675.6,10.23,A,right,0.75,12,0.65,15,0.73,11,0.63,14,-999,31.0,3,1,2,0.0,-1.0,0.0,0.0,3.0,-1.0,11
13,2,5649.32,4,5686.16,5687.68,25.22,C,right,0.27,37,0.61,16,0.89,11,-999.0,-999,-999,99.0,1,2,3,0.0,0.0,0.0,0.0,0.0,0.0,101
13,2,5649.32,5,5713.23,5714.75,12.53,A,left,0.78,13,0.62,14,0.85,10,0.55,18,-999,1.0,1,3,2,3.0,0.0,-3.0,-1.0,0.0,-1.0,111
13,2,5649.32,6,5727.63,5729.15,10.95,A,mid,0.75,13,0.62,14,0.88,11,0.58,19,-999,2.0,2,1,3,0.0,0.0,-3.0,-1.0,3.0,0.0,11
13,2,5649.32,7,5740.44,5741.96,13.57,A,mid,0.72,13,0.65,14,0.7,12,0.63,13,-999,32.0,2,1,3,-3.0,0.0,0.0,-1.0,3.0,0.0,100
13,2,5649.32,8,5755.87,5757.39,16.31,B,mid,0.75,12,0.62,15,0.73,11,0.6,14,-999,32.0,3,2,1,0.0,-1.0,-3.0,0.0,-3.0,0.0,0
13,2,5649.32,9,5774.03,5775.55,14.12,B,right,0.75,12,0.68,15,0.88,11,0.58,19,-999,1.0,2,3,1,0.0,-1.0,3.0,0.0,3.0,0.0,111
13,2,5649.32,10,5790.01,5791.53,16.03,B,mid,0.72,12,0.65,15,0.88,10,0.58,18,-999,2.0,3,2,1,-3.0,-1.0,0.0,0.0,3.0,-1.0,0
13,2,5649.32,11,5807.9,5809.42,20.63,A,mid,0.78,12,0.68,14,0.76,11,0.66,13,-999,32.0,2,1,3,3.0,-1.0,3.0,-1.0,3.0,-1.0,1
13,2,5649.32,12,5830.4,5831.91,24.9,C,left,0.72,12,0.65,15,0.85,11,0.55,19,-999,2.0,3,2,1,-3.0,-1.0,0.0,0.0,0.0,0.0,10
13,2,5649.32,13,5857.16,5858.67,13.77,B,left,0.72,12,0.68,15,0.88,11,0.58,19,-999,2.0,3,1,2,-3.0,-1.0,3.0,0.0,3.0,0.0,110
13,2,5649.32,14,5872.78,5874.3,12.72,A,right,0.72,13,0.62,15,0.7,12,0.6,14,-999,32.0,3,1,2,-3.0,0.0,-3.0,0.0,0.0,0.0,0
13,2,5649.32,15,5887.36,5888.88,17.33,A,mid,0.78,12,0.62,14,0.76,11,0.6,13,-999,32.0,2,1,3,3.0,-1.0,-3.0,-1.0,0.0,-1.0,110
13,2,5649.32,16,5906.54,5908.06,9.53,B,left,0.75,12,0.68,14,0.73,11,0.66,13,-999,32.0,3,1,2,0.0,-1.0,3.0,-1.0,0.0,0.0,110
13,2,5649.32,17,5917.94,5919.45,14.5,B,right,0.78,12,0.62,15,0.76,11,0.6,14,-999,32.0,1,3,2,3.0,-1.0,-3.0,0.0,-3.0,-1.0,0
13,2,5649.32,18,5934.3,5935.81,18.32,A,right,0.78,13,0.65,15,0.76,12,0.63,14,-999,32.0,3,2,1,3.0,0.0,0.0,0.0,0.0,0.0,1
13,2,5649.32,19,5954.47,5955.99,20.41,B,right,0.78,12,0.68,15,0.88,11,0.58,19,-999,1.0,2,3,1,3.0,-1.0,3.0,0.0,3.0,0.0,11
13,2,5649.32,20,5976.73,5978.25,5.64,B,right,0.72,12,0.62,15,0.7,11,0.6,14,-999,32.0,1,3,2,-3.0,-1.0,-3.0,0.0,-3.0,-1.0,10
13,2,5649.32,21,5984.23,5985.75,16.79,C,left,0.32,31,0.6,16,0.78,12,-999.0,-999,-999,99.0,3,2,1,0.0,0.0,0.0,0.0,0.0,0.0,10
13,2,5649.32,22,6002.88,6004.39,13.37,B,left,0.72,12,0.65,15,0.7,11,0.63,14,-999,31.0,3,1,2,-3.0,-1.0,0.0,0.0,3.0,-1.0,11
13,2,5649.32,23,6018.1,6019.62,15.14,B,right,0.28,35,0.67,14,0.78,12,-999.0,-999,-999,99.0,2,3,1,0.0,0.0,0.0,0.0,0.0,0.0,101
13,2,5649.32,24,6035.1,6036.61,8.58,B,mid,0.72,13,0.68,15,0.82,10,0.52,18,-999,1.0,3,2,1,-3.0,0.0,3.0,0.0,-3.0,-1.0,10
13,2,5649.32,25,6045.53,6047.04,16.06,B,mid,0.78,13,0.65,14,0.82,10,0.52,18,-999,1.0,3,2,1,3.0,0.0,0.0,-1.0,-3.0,-1.0,111
13,2,5649.32,26,6063.44,6064.96,19.01,C,mid,0.24,41,0.37,27,0.76,13,-999.0,-999,-999,99.0,3,1,2,0.0,0.0,0.0,0.0,0.0,0.0,10
13,2,5649.32,27,6084.3,6085.82,24.7,C,left,0.27,37,0.47,21,0.86,11,-999.0,-999,-999,99.0,2,3,1,0.0,0.0,0.0,0.0,0.0,0.0,100
13,2,5649.32,28,6110.86,6112.37,8.54,C,right,0.75,13,0.65,15,0.82,10,0.52,18,-999,1.0,1,2,3,0.0,0.0,0.0,0.0,-3.0,-1.0,11
13,2,5649.32,29,6121.26,6122.77,18.26,A,mid,0.72,13,0.62,14,0.85,11,0.55,19,-999,2.0,2,3,1,-3.0,0.0,-3.0,-1.0,0.0,0.0,1
13,2,5649.32,30,6141.37,6142.88,14.66,C,mid,0.19,52,0.56,17,0.8,12,-999.0,-999,-999,99.0,1,3,2,0.0,0.0,0.0,0.0,0.0,0.0,0
13,2,5649.32,31,6157.88,6159.39,6.23,A,right,0.78,13,0.62,14,0.76,12,0.6,13,-999,31.0,3,1,2,3.0,0.0,-3.0,-1.0,-3.0,0.0,100
13,2,5649.32,32,6165.96,6167.47,9.41,A,left,0.78,12,0.62,15,0.76,11,0.6,14,-999,31.0,1,2,3,3.0,-1.0,-3.0,0.0,0.0,0.0,0
13,2,5649.32,33,6177.22,6178.74,15.7,B,left,0.72,13,0.68,14,0.88,11,0.58,19,-999,2.0,2,1,3,-3.0,0.0,3.0,-1.0,3.0,0.0,10
13,2,5649.32,34,6194.78,6196.3,8.75,B,right,0.78,13,0.68,15,0.82,11,0.52,19,-999,1.0,1,3,2,3.0,0.0,3.0,0.0,-3.0,0.0,111
13,2,5649.32,35,6205.38,6206.89,14.46,B,mid,0.75,13,0.65,15,0.73,12,0.63,14,-999,31.0,1,2,3,0.0,0.0,0.0,0.0,0.0,0.0,10
13,2,5649.32,36,6221.69,6223.21,6.44,B,mid,0.29,34,0.42,23,0.72,13,-999.0,-999,-999,99.0,3,2,1,0.0,0.0,0.0,0.0,0.0,0.0,100
13,2,5649.32,37,6229.99,6231.5,9.48,C,right,0.31,32,0.38,26,0.85,11,-999.0,-999,-999,99.0,1,2,3,0.0,0.0,0.0,0.0,0.0,0.0,101
13,2,5649.32,38,6262.83,6264.34,11.79,A,left,0.78,13,0.68,15,0.88,10,0.58,18,-999,1.0,1,3,2,3.0,0.0,3.0,0.0,3.0,-1.0,11
13,2,5649.32,39,6276.47,6277.99,15.1,A,left,0.75,12,0.62,15,0.88,11,0.58,19,-999,1.0,1,3,2,0.0,-1.0,-3.0,0.0,3.0,0.0,11
13,2,5649.32,40,6293.43,6294.95,7.05,A,right,0.75,13,0.65,15,0.73,12,0.63,14,-999,31.0,3,1,2,0.0,0.0,0.0,0.0,0.0,-1.0,111
13,2,5649.32,41,6302.35,6303.86,12.4,A,left,0.72,13,0.62,14,0.85,11,0.55,19,-999,2.0,1,3,2,-3.0,0.0,-3.0,-1.0,0.0,0.0,111
13,2,5649.32,42,6316.61,6318.13,15.87,B,left,0.78,13,0.62,15,0.76,12,0.6,14,-999,32.0,2,1,3,3.0,0.0,-3.0,0.0,3.0,0.0,10
13,2,5649.32,43,6334.34,6335.85,14.93,A,left,0.75,13,0.65,14,0.73,12,0.63,13,-999,31.0,1,2,3,0.0,0.0,0.0,-1.0,0.0,0.0,0
13,2,5649.32,44,6351.12,6352.63,15.0,B,left,0.72,13,0.65,15,0.82,10,0.52,18,-999,2.0,3,1,2,-3.0,0.0,0.0,0.0,-3.0,-1.0,0
13,2,5649.32,45,6367.98,6369.49,8.46,A,left,0.78,13,0.65,14,0.82,10,0.52,18,-999,2.0,1,2,3,3.0,0.0,0.0,-1.0,-3.0,-1.0,100
13,2,5649.32,46,6378.29,6379.81,12.16,B,left,0.72,12,0.65,14,0.7,11,0.63,13,-999,31.0,2,1,3,-3.0,-1.0,0.0,-1.0,3.0,-1.0,101
13,2,5649.32,47,6392.3,6393.82,7.21,B,mid,0.78,13,0.65,14,0.82,11,0.52,19,-999,1.0,1,2,3,3.0,0.0,0.0,-1.0,-3.0,0.0,100
13,2,5649.32,48,6401.37,6402.88,5.13,A,mid,0.72,13,0.62,15,0.7,12,0.6,14,-999,31.0,2,3,1,-3.0,0.0,-3.0,0.0,0.0,-1.0,11
13,2,5649.32,49,6408.35,6409.86,17.65,A,right,0.75,13,0.65,14,0.85,10,0.55,18,-999,2.0,3,2,1,0.0,0.0,0.0,-1.0,0.0,-1.0,11
13,2,5649.32,50,6427.86,6429.37,15.07,B,left,0.78,12,0.65,15,0.76,11,0.63,14,-999,32.0,2,1,3,3.0,-1.0,0.0,0.0,-3.0,-1.0,10
13,2,5649.32,51,6444.79,6446.3,14.8,A,left,0.72,13,0.68,15,0.82,10,0.52,18,-999,1.0,1,3,2,-3.0,0.0,3.0,0.0,-3.0,-1.0,10
13,2,5649.32,52,6461.45,6462.96,25.73,C,right,0.19,52,0.59,16,0.81,12,-999.0,-999,-999,99.0,2,1,3,0.0,0.0,0.0,0.0,0.0,0.0,110
13,2,5649.32,53,6489.02,6490.54,17.88,A,left,0.78,12,0.68,15,0.85,10,0.55,18,-999,1.0,1,3,2,3.0,-1.0,3.0,0.0,0.0,-1.0,0
13,2,5649.32,54,6508.77,6510.28,9.93,B,mid,0.75,12,0.68,14,0.85,10,0.55,18,-999,2.0,1,2,3,0.0,-1.0,3.0,-1.0,0.0,-1.0,110
13,2,5649.32,55,6520.55,6522.06,5.71,A,mid,0.78,12,0.68,15,0.76,11,0.66,14,-999,31.0,2,3,1,3.0,-1.0,3.0,0.0,0.0,0.0,111
13,2,5649.32,56,6528.11,6529.63,4.78,B,left,0.78,13,0.65,15,0.76,12,0.63,14,-999,32.0,2,1,3,3.0,0.0,0.0,0.0,-3.0,-1.0,101
13,2,5649.32,57,6534.74,6536.26,9.31,B,mid,0.72,13,0.65,15,0.82,10,0.52,18,-999,1.0,3,2,1,-3.0,0.0,0.0,0.0,-3.0,-1.0,100
13,2,5649.32,58,6545.9,6547.42,16.86,C,right,0.72,12,0.62,14,0.88,11,0.58,19,-999,2.0,1,2,3,-3.0,-1.0,-3.0,-1.0,3.0,0.0,111
13,2,5649.32,59,6564.61,6566.13,10.21,B,mid,0.72,13,0.62,15,0.7,12,0.6,14,-999,32.0,1,2,3,-3.0,0.0,-3.0,0.0,3.0,-1.0,1
13,2,5649.32,60,6576.68,6578.19,13.0,B,mid,0.72,12,0.65,15,0.7,11,0.63,14,-999,31.0,3,2,1,-3.0,-1.0,0.0,0.0,3.0,-1.0,0
13,2,5649.32,61,6591.54,6593.06,10.34,A,mid,0.78,13,0.62,14,0.85,11,0.55,19,-999,2.0,2,3,1,3.0,0.0,-3.0,-1.0,0.0,0.0,10
13,2,5649.32,62,6603.74,6605.25,14.49,A,right,0.72,13,0.68,14,0.7,12,0.66,13,-999,32.0,3,1,2,-3.0,0.0,3.0,-1.0,0.0,-1.0,111
13,2,5649.32,63,6620.08,6621.6,16.73,C,left,0.16,62,0.46,21,0.87,11,-999.0,-999,-999,99.0,3,2,1,0.0,0.0,0.0,0.0,0.0,0.0,110
13,2,5649.32,64,6638.67,6640.19,11.41,A,left,0.75,12,0.65,14,0.73,11,0.63,13,-999,32.0,1,2,3,0.0,-1.0,0.0,-1.0,3.0,0.0,100
13,2,5649.32,65,6651.94,6653.45,11.56,B,mid,0.72,12,0.68,14,0.85,11,0.55,19,-999,2.0,1,2,3,-3.0,-1.0,3.0,-1.0,0.0,0.0,0
13,2,5649.32,66,6665.35,6666.87,7.15,A,left,0.72,13,0.65,15,0.7,12,0.63,14,-999,31.0,1,2,3,-3.0,0.0,0.0,0.0,-3.0,-1.0,10
13,2,5649.32,67,6674.36,6675.88,14.79,A,right,0.78,12,0.62,15,0.85,10,0.55,18,-999,1.0,3,1,2,3.0,-1.0,-3.0,0.0,0.0,-1.0,0
13,2,5649.32,68,6691.01,6692.52,6.16,B,right,0.72,12,0.68,14,0.7,11,0.66,13,-999,31.0,2,3,1,-3.0,-1.0,3.0,-1.0,-3.0,0.0,110
13,2,5649.32,69,6699.02,6700.54,16.39,A,right,0.75,13,0.65,15,0.85,11,0.55,19,-999,1.0,3,2,1,0.0,0.0,0.0,0.0,0.0,0.0,10
13,2,5649.32,70,6717.27,6718.78,10.64,B,mid,0.75,12,0.62,15,0.88,10,0.58,18,-999,2.0,3,2,1,0.0,-1.0,-3.0,0.0,3.0,-1.0,110
13,2,5649.32,71,6729.76,6731.28,16.86,C,mid,0.75,13,0.62,15,0.88,10,0.58,18,-999,1.0,3,1,2,0.0,0.0,-3.0,0.0,3.0,-1.0,10
13,2,5649.32,72,6748.47,6749.99,10.1,A,mid,0.75,13,0.65,14,0.73,12,0.63,13,-999,31.0,2,1,3,0.0,0.0,0.0,-1.0,-3.0,-1.0,1
13,2,5649.32,73,6760.44,6761.95,10.93,B,mid,0.32,31,0.48,20,0.85,11,-999.0,-999,-999,99.0,3,2,1,0.0,0.0,0.0,0.0,0.0,0.0,110
13,2,5649.32,74,6773.22,6774.73,12.66,B,right,0.75,12,0.68,14,0.73,11,0.66,13,-999,31.0,1,3,2,0.0,-1.0,3.0,-1.0,0.0,-1.0,110
13,2,5649.32,75,6787.73,6789.24,10.4,B,mid,0.72,13,0.68,15,0.82,11,0.52,19,-999,2.0,3,2,1,-3.0,0.0,3.0,0.0,-3.0,0.0,110
13,Estimation3,6841.06,E1,6841.13,6842.64,5.12,B,mid,0.75,11,0.65,15,0.85,-999,0.55,20,3,,3,2,1,,,,,,,11
13,Estimation3,6841.06,E2,6848.09,6849.61,6.56,C,mid,0.75,12,0.65,15,0.85,-999,0.55,20,1,2.0,1,3,2,,,,,,,111
13,Estimation3,6841.06,E3,6856.51,6858.02,8.55,B,left,0.75,12,0.65,15,0.85,-999,0.55,18,3,,3,1,2,,,,,,,100
13,Estimation3,6841.06,E4,6866.9,6868.42,10.21,C,left,0.75,13,0.65,15,0.85,-999,0.55,18,1,2.0,3,2,1,,,,,,,11
13,Estimation3,6841.06,E5,6878.97,6880.48,6.28,B,mid,0.75,13,0.65,15,0.85,-999,0.55,17,3,,1,2,3,,,,,,,110
13,Estimation3,6841.06,E6,6887.1,6888.61,8.06,B,mid,0.75,13,0.65,15,0.85,7,0.55,17,1,2.0,1,2,3,,,,,,,0
13,Estimation3,6841.06,E7,6897.01,6898.53,5.63,A,right,0.75,13,0.65,15,0.85,7,0.55,18,2,1.0,3,2,1,,,,,,,111
13,Estimation3,6841.06,E8,6904.49,6906.01,6.84,B,left,0.75,13,0.65,15,0.85,9,0.55,18,1,2.0,3,1,2,,,,,,,101
13,Estimation3,6841.06,E9,6913.19,6914.7,7.47,A,left,0.75,13,0.65,15,0.85,9,0.55,18,2,1.0,1,2,3,,,,,,,11
13,Estimation3,6841.06,E10,6922.52,6924.03,5.5,B,mid,0.75,13,0.65,15,0.85,10,0.55,18,1,2.0,3,2,1,,,,,,,0
13,Estimation3,6841.06,E11,6929.88,6931.4,8.28,A,left,0.75,13,0.65,15,0.85,10,0.55,18,2,1.0,1,3,2,,,,,,,0
13,Estimation3,6841.06,E12,6940.03,6941.55,6.14,B,right,0.75,13,0.65,15,0.85,11,0.55,18,1,2.0,2,3,1,,,,,,,10
13,Estimation3,6841.06,E13,6948.03,6949.54,6.3,A,mid,0.75,13,0.65,15,0.85,11,0.55,18,2,1.0,2,1,3,,,,,,,11
13,3,6959.98,1,6960.04,6961.56,4.44,A,right,0.78,13,0.68,15,0.76,12,0.66,14,-999,31.0,3,2,1,3.0,0.0,3.0,0.0,0.0,0.0,111
13,3,6959.98,2,6966.34,6967.85,11.75,A,mid,0.78,13,0.68,15,0.82,11,0.52,18,-999,1.0,2,3,1,3.0,0.0,3.0,0.0,-3.0,0.0,111
13,3,6959.98,3,6979.93,6981.45,12.66,C,right,0.72,12,0.68,14,0.85,11,0.55,18,-999,2.0,2,1,3,-3.0,-1.0,3.0,-1.0,0.0,0.0,111
13,3,6959.98,4,6994.45,6995.96,13.35,A,mid,0.78,12,0.68,15,0.88,11,0.58,18,-999,1.0,2,3,1,3.0,-1.0,3.0,0.0,3.0,0.0,111
13,3,6959.98,5,7009.66,7011.17,14.14,B,mid,0.72,13,0.68,15,0.82,11,0.52,18,-999,2.0,1,2,3,-3.0,0.0,3.0,0.0,-3.0,0.0,11
13,3,6959.98,6,7025.65,7027.17,8.38,A,right,0.72,13,0.65,15,0.82,10,0.52,17,-999,2.0,3,1,2,-3.0,0.0,0.0,0.0,-3.0,-1.0,111
13,3,6959.98,7,7035.88,7037.4,12.66,A,left,0.75,13,0.65,14,0.85,10,0.55,17,-999,2.0,1,3,2,0.0,0.0,0.0,-1.0,0.0,-1.0,1
13,3,6959.98,8,7050.39,7051.91,11.74,A,right,0.72,13,0.65,14,0.7,12,0.63,13,-999,32.0,3,1,2,-3.0,0.0,0.0,-1.0,3.0,0.0,10
13,3,6959.98,9,7063.99,7065.51,7.17,A,left,0.78,13,0.62,14,0.76,12,0.6,13,-999,31.0,1,2,3,3.0,0.0,-3.0,-1.0,-3.0,0.0,11
13,3,6959.98,10,7073.02,7074.54,5.92,B,right,0.72,12,0.68,14,0.7,11,0.66,13,-999,31.0,1,3,2,-3.0,-1.0,3.0,-1.0,-3.0,0.0,10
13,3,6959.98,11,7080.8,7082.32,8.63,A,right,0.72,13,0.62,15,0.7,12,0.6,14,-999,31.0,3,1,2,-3.0,0.0,-3.0,0.0,0.0,-1.0,1
13,3,6959.98,12,7091.3,7092.81,11.36,B,right,0.72,13,0.68,15,0.82,10,0.52,17,-999,1.0,2,3,1,-3.0,0.0,3.0,0.0,-3.0,-1.0,101
13,3,6959.98,13,7104.51,7106.03,13.67,C,left,0.16,62,0.46,21,0.87,11,-999.0,-999,-999,99.0,3,2,1,0.0,0.0,0.0,0.0,0.0,0.0,110
13,3,6959.98,14,7120.04,7121.56,11.67,C,left,0.75,12,0.62,15,0.88,10,0.58,17,-999,2.0,3,2,1,0.0,-1.0,-3.0,0.0,3.0,-1.0,111
13,3,6959.98,15,7133.57,7135.08,10.16,A,left,0.75,13,0.65,15,0.73,12,0.63,14,-999,31.0,1,2,3,0.0,0.0,0.0,0.0,0.0,-1.0,1
13,3,6959.98,16,7145.58,7147.1,16.96,C,right,0.78,13,0.62,14,0.85,11,0.55,18,-999,2.0,1,2,3,3.0,0.0,-3.0,-1.0,0.0,0.0,0
13,3,6959.98,17,7164.39,7165.91,8.78,B,right,0.72,13,0.62,15,0.7,12,0.6,14,-999,32.0,2,3,1,-3.0,0.0,-3.0,0.0,3.0,-1.0,111
13,3,6959.98,18,7175.02,7176.54,9.52,B,right,0.72,12,0.65,15,0.88,10,0.58,17,-999,2.0,1,3,2,-3.0,-1.0,0.0,0.0,3.0,-1.0,11
13,3,6959.98,19,7186.4,7187.92,11.69,B,left,0.75,13,0.65,15,0.85,11,0.55,18,-999,1.0,2,1,3,0.0,0.0,0.0,0.0,0.0,0.0,11
13,3,6959.98,20,7199.95,7201.46,5.0,C,right,0.29,34,0.42,23,0.72,13,-999.0,-999,-999,99.0,1,2,3,0.0,0.0,0.0,0.0,0.0,0.0,110
13,3,6959.98,21,7206.79,7208.31,10.27,A,right,0.75,13,0.65,15,0.73,12,0.63,14,-999,31.0,3,1,2,0.0,0.0,0.0,0.0,0.0,0.0,10
13,3,6959.98,22,7218.92,7220.44,11.97,C,right,0.32,31,0.6,16,0.78,12,-999.0,-999,-999,99.0,2,1,3,0.0,0.0,0.0,0.0,0.0,0.0,100
13,3,6959.98,23,7232.75,7234.27,13.35,C,right,0.31,32,0.38,26,0.85,11,-999.0,-999,-999,99.0,1,2,3,0.0,0.0,0.0,0.0,0.0,0.0,11
13,3,6959.98,24,7247.96,7249.48,7.61,A,left,0.78,12,0.68,15,0.85,10,0.55,17,-999,1.0,1,3,2,3.0,-1.0,3.0,0.0,0.0,-1.0,111
13,3,6959.98,25,7257.43,7258.94,9.81,A,mid,0.75,13,0.65,15,0.82,10,0.52,17,-999,1.0,2,3,1,0.0,0.0,0.0,0.0,-3.0,-1.0,11
13,3,6959.98,26,7269.09,7270.61,5.48,C,left,0.24,41,0.37,27,0.76,13,-999.0,-999,-999,99.0,2,3,1,0.0,0.0,0.0,0.0,0.0,0.0,10
13,3,6959.98,27,7276.42,7277.94,20.11,C,left,0.32,31,0.48,20,0.85,11,-999.0,-999,-999,99.0,3,2,1,0.0,0.0,0.0,0.0,0.0,0.0,101
13,3,6959.98,28,7298.4,7299.91,6.27,A,right,0.78,13,0.65,14,0.82,10,0.52,17,-999,1.0,3,2,1,3.0,0.0,0.0,-1.0,-3.0,-1.0,111
13,3,6959.98,29,7306.51,7308.03,10.61,B,left,0.78,13,0.65,14,0.82,10,0.52,17,-999,2.0,3,1,2,3.0,0.0,0.0,-1.0,-3.0,-1.0,10
13,3,6959.98,30,7318.98,7320.49,7.9,B,left,0.78,12,0.68,14,0.76,11,0.66,13,-999,32.0,2,1,3,3.0,-1.0,3.0,-1.0,3.0,-1.0,110
13,3,6959.98,31,7328.72,7330.24,15.27,B,right,0.19,52,0.59,16,0.81,12,-999.0,-999,-999,99.0,1,3,2,0.0,0.0,0.0,0.0,0.0,0.0,0
13,3,6959.98,32,7345.85,7347.37,7.2,B,right,0.78,12,0.62,15,0.76,11,0.6,14,-999,32.0,2,3,1,3.0,-1.0,-3.0,0.0,-3.0,-1.0,11
13,3,6959.98,33,7354.91,7356.43,10.37,A,left,0.78,13,0.65,14,0.82,11,0.52,18,-999,1.0,1,2,3,3.0,0.0,0.0,-1.0,-3.0,0.0,11
13,3,6959.98,34,7367.14,7368.66,9.34,A,right,0.72,13,0.62,14,0.85,11,0.55,18,-999,2.0,3,1,2,-3.0,0.0,-3.0,-1.0,0.0,0.0,110
13,3,6959.98,35,7378.34,7379.86,7.89,B,left,0.75,12,0.65,15,0.73,11,0.63,14,-999,31.0,3,1,2,0.0,-1.0,0.0,0.0,3.0,-1.0,10
13,3,6959.98,36,7388.09,7389.6,6.18,B,right,0.72,13,0.68,14,0.7,12,0.66,13,-999,32.0,1,3,2,-3.0,0.0,3.0,-1.0,0.0,-1.0,1
13,3,6959.98,37,7396.13,7397.65,5.14,B,left,0.78,13,0.62,15,0.76,12,0.6,14,-999,32.0,2,1,3,3.0,0.0,-3.0,0.0,3.0,0.0,11
13,3,6959.98,38,7421.84,7423.36,9.41,B,right,0.72,13,0.65,15,0.7,12,0.63,14,-999,31.0,1,3,2,-3.0,0.0,0.0,0.0,-3.0,-1.0,110
13,3,6959.98,39,7433.11,7434.62,8.26,A,mid,0.75,12,0.68,14,0.73,11,0.66,13,-999,31.0,2,1,3,0.0,-1.0,3.0,-1.0,0.0,-1.0,100
13,3,6959.98,40,7443.22,7444.74,9.33,A,mid,0.78,13,0.65,15,0.76,12,0.63,14,-999,32.0,2,3,1,3.0,0.0,0.0,0.0,0.0,0.0,10
13,3,6959.98,41,7454.4,7455.92,8.62,B,mid,0.72,12,0.62,15,0.7,11,0.6,14,-999,32.0,3,2,1,-3.0,-1.0,-3.0,0.0,-3.0,-1.0,1
13,3,6959.98,42,7464.88,7466.4,10.57,A,mid,0.78,12,0.62,15,0.76,11,0.6,14,-999,31.0,2,1,3,3.0,-1.0,-3.0,0.0,0.0,0.0,10
13,3,6959.98,43,7477.31,7478.83,10.72,B,left,0.72,12,0.68,15,0.88,11,0.58,18,-999,2.0,3,1,2,-3.0,-1.0,3.0,0.0,3.0,0.0,100
13,3,6959.98,44,7489.89,7491.4,9.34,C,right,0.27,37,0.47,21,0.86,11,-999.0,-999,-999,99.0,1,2,3,0.0,0.0,0.0,0.0,0.0,0.0,100
13,3,6959.98,45,7501.09,7502.6,14.64,A,mid,0.72,13,0.62,15,0.7,12,0.6,14,-999,32.0,2,3,1,-3.0,0.0,-3.0,0.0,0.0,0.0,0
13,3,6959.98,46,7517.58,7519.1,12.61,B,mid,0.78,12,0.65,15,0.76,11,0.63,14,-999,32.0,3,2,1,3.0,-1.0,0.0,0.0,-3.0,-1.0,11
13,3,6959.98,47,7532.04,7533.56,14.77,A,left,0.72,13,0.65,15,0.82,10,0.52,17,-999,1.0,1,3,2,-3.0,0.0,0.0,0.0,-3.0,-1.0,0
13,3,6959.98,48,7548.67,7550.19,12.53,B,left,0.75,12,0.68,14,0.85,10,0.55,17,-999,2.0,3,1,2,0.0,-1.0,3.0,-1.0,0.0,-1.0,110
13,3,6959.98,49,7563.05,7564.56,8.59,B,right,0.72,12,0.65,15,0.85,11,0.55,18,-999,2.0,1,3,2,-3.0,-1.0,0.0,0.0,0.0,0.0,100
13,3,6959.98,50,7573.53,7575.04,20.99,A,left,0.78,12,0.62,14,0.76,11,0.6,13,-999,32.0,1,3,2,3.0,-1.0,-3.0,-1.0,0.0,-1.0,111
13,3,6959.98,51,7596.37,7597.89,7.41,A,mid,0.72,13,0.62,14,0.7,12,0.6,13,-999,32.0,2,3,1,-3.0,0.0,-3.0,-1.0,0.0,0.0,111
13,3,6959.98,52,7605.64,7607.15,9.68,C,left,0.75,13,0.62,14,0.88,11,0.58,18,-999,2.0,3,2,1,0.0,0.0,-3.0,-1.0,3.0,0.0,101
13,3,6959.98,53,7617.17,7618.68,16.33,C,left,0.72,13,0.68,14,0.88,11,0.58,18,-999,2.0,3,2,1,-3.0,0.0,3.0,-1.0,3.0,0.0,1
13,3,6959.98,54,7635.34,7636.86,9.28,B,left,0.28,35,0.67,14,0.78,12,-999.0,-999,-999,99.0,3,1,2,0.0,0.0,0.0,0.0,0.0,0.0,100
13,3,6959.98,55,7646.47,7647.99,8.49,A,mid,0.78,13,0.62,14,0.85,10,0.55,17,-999,1.0,2,1,3,3.0,0.0,-3.0,-1.0,0.0,-1.0,0
13,3,6959.98,56,7656.82,7658.33,28.51,C,left,0.75,12,0.62,15,0.88,11,0.58,18,-999,1.0,2,3,1,0.0,-1.0,-3.0,0.0,3.0,0.0,111
13,3,6959.98,57,7687.18,7688.69,10.7,A,right,0.78,13,0.68,15,0.88,10,0.58,17,-999,1.0,3,2,1,3.0,0.0,3.0,0.0,3.0,-1.0,111
13,3,6959.98,58,7699.74,7701.25,12.72,B,left,0.75,12,0.68,14,0.73,11,0.66,13,-999,32.0,2,1,3,0.0,-1.0,3.0,-1.0,0.0,0.0,101
13,3,6959.98,59,7714.32,7715.83,9.69,B,right,0.72,12,0.65,15,0.7,11,0.63,14,-999,31.0,2,3,1,-3.0,-1.0,0.0,0.0,3.0,-1.0,101
13,3,6959.98,60,7725.86,7727.38,6.67,A,left,0.75,13,0.62,15,0.88,10,0.58,17,-999,1.0,1,2,3,0.0,0.0,-3.0,0.0,3.0,-1.0,111
13,3,6959.98,61,7734.39,7735.91,9.54,B,left,0.72,13,0.68,15,0.82,10,0.52,17,-999,1.0,3,1,2,-3.0,0.0,3.0,0.0,-3.0,-1.0,100
13,3,6959.98,62,7745.79,7747.31,14.18,C,mid,0.72,12,0.62,14,0.88,11,0.58,18,-999,2.0,1,3,2,-3.0,-1.0,-3.0,-1.0,3.0,0.0,101
13,3,6959.98,63,7761.84,7763.35,11.43,C,mid,0.27,37,0.61,16,0.89,11,-999.0,-999,-999,99.0,1,3,2,0.0,0.0,0.0,0.0,0.0,0.0,100
13,3,6959.98,64,7775.11,7776.63,13.52,C,left,0.75,12,0.68,15,0.88,11,0.58,18,-999,1.0,2,3,1,0.0,-1.0,3.0,0.0,3.0,0.0,101
13,3,6959.98,65,7790.49,7792.01,14.98,A,left,0.75,12,0.62,15,0.73,11,0.6,14,-999,32.0,1,3,2,0.0,-1.0,-3.0,0.0,-3.0,0.0,111
13,3,6959.98,66,7807.34,7808.85,15.13,A,mid,0.75,13,0.65,14,0.73,12,0.63,13,-999,31.0,2,3,1,0.0,0.0,0.0,-1.0,0.0,0.0,10
13,3,6959.98,67,7824.33,7825.85,14.33,B,mid,0.72,13,0.62,14,0.85,11,0.55,18,-999,2.0,3,2,1,-3.0,0.0,-3.0,-1.0,0.0,0.0,0
13,3,6959.98,68,7840.51,7842.03,3.9,A,mid,0.72,12,0.65,15,0.7,11,0.63,14,-999,31.0,2,3,1,-3.0,-1.0,0.0,0.0,3.0,-1.0,111
13,3,6959.98,69,7846.28,7847.79,10.03,C,left,0.19,52,0.56,17,0.8,12,-999.0,-999,-999,99.0,2,3,1,0.0,0.0,0.0,0.0,0.0,0.0,10
13,3,6959.98,70,7858.16,7859.67,12.08,A,left,0.75,13,0.65,14,0.73,12,0.63,13,-999,31.0,1,3,2,0.0,0.0,0.0,-1.0,-3.0,-1.0,11
13,3,6959.98,71,7872.08,7873.6,11.95,B,right,0.72,12,0.65,14,0.7,11,0.63,13,-999,31.0,1,3,2,-3.0,-1.0,0.0,-1.0,3.0,-1.0,0
13,3,6959.98,72,7885.88,7887.4,13.12,C,right,0.75,12,0.65,14,0.73,11,0.63,13,-999,32.0,2,1,3,0.0,-1.0,0.0,-1.0,3.0,0.0,110
13,3,6959.98,73,7900.86,7902.37,8.19,B,left,0.78,13,0.65,15,0.76,12,0.63,14,-999,32.0,2,1,3,3.0,0.0,0.0,0.0,-3.0,-1.0,111
13,3,6959.98,74,7910.9,7912.42,11.82,A,mid,0.78,12,0.62,15,0.85,10,0.55,17,-999,1.0,2,1,3,3.0,-1.0,-3.0,0.0,0.0,-1.0,111
13,3,6959.98,75,7924.58,7926.1,9.88,B,left,0.78,12,0.68,15,0.76,11,0.66,14,-999,31.0,3,1,2,3.0,-1.0,3.0,0.0,0.0,0.0,0
