subject,block,block_onset,trial,fixation_cross_onset,trial_onset,rt,choice,key,pA,mA,pB,mB,pCA,mCA,pCB,mCB,missing,condition,position_A,position_B,position_C,noise_Ap,noise_Am,noise_Bp,noise_Bm,noise_Cp,noise_Cm,attribute_positions
12,Practice,1019.19,P1,1019.23,1020.75,4.29,B,left,0.78,7,0.62,17,0.85,3,0.55,24,-999,2.0,3,1,2,3.0,-2.0,-3.0,2.0,0.0,-1.0,1
12,Practice,1019.19,P2,1025.41,1026.93,7.09,C,right,0.72,7,0.62,16,0.88,5,0.58,26,-999,2.0,1,2,3,-3.0,-2.0,-3.0,1.0,3.0,1.0,10
12,Practice,1019.19,P3,1034.38,1035.89,4.75,A,mid,0.75,11,0.68,13,0.85,4,0.55,25,-999,1.0,2,3,1,0.0,2.0,3.0,-2.0,0.0,0.0,110
12,Practice,1019.19,P4,1040.97,1042.49,7.4,B,left,0.75,9,0.65,15,0.88,5,0.58,26,-999,1.0,3,1,2,0.0,0.0,0.0,0.0,3.0,1.0,100
12,Practice,1019.19,P5,1050.24,1051.75,7.76,C,mid,0.72,11,0.62,13,0.85,6,0.55,27,-999,1.0,1,3,2,-3.0,2.0,-3.0,-2.0,0.0,2.0,101
12,Practice,1019.19,P6,1059.85,1061.37,5.66,A,mid,0.78,7,0.62,13,0.82,6,0.52,27,-999,2.0,2,3,1,3.0,-2.0,-3.0,-2.0,-3.0,2.0,110
12,Practice,1019.19,P7,1067.37,1068.88,6.17,C,right,0.75,7,0.65,17,0.85,5,0.55,26,-999,2.0,2,1,3,0.0,-2.0,0.0,2.0,0.0,1.0,111
12,Practice,1019.19,P8,1075.4,1076.91,1.68,C,mid,0.72,8,0.68,15,0.82,6,0.52,27,-999,2.0,3,1,2,-3.0,-1.0,3.0,0.0,-3.0,2.0,110
12,Practice,1019.19,P9,1078.93,1080.44,2.17,A,right,0.78,8,0.62,16,0.88,5,0.58,26,-999,1.0,3,1,2,3.0,-1.0,-3.0,1.0,3.0,1.0,1
12,Practice,1019.19,P10,1082.96,1084.48,3.47,A,left,0.75,10,0.65,16,0.82,2,0.52,23,-999,2.0,1,2,3,0.0,1.0,0.0,1.0,-3.0,-2.0,101
12,Practice,1019.19,P11,1088.29,1089.81,3.08,C,left,0.72,8,0.65,15,0.85,5,0.55,26,-999,2.0,2,3,1,-3.0,-1.0,0.0,0.0,0.0,1.0,0
12,Practice,1019.19,P12,1093.22,1094.74,4.04,B,right,0.72,8,0.68,15,0.85,5,0.55,26,-999,1.0,2,3,1,-3.0,-1.0,3.0,0.0,0.0,1.0,101
12,Practice,1019.19,P13,1099.12,1100.64,2.14,A,mid,0.78,11,0.68,16,0.88,5,0.58,26,-999,1.0,2,1,3,3.0,2.0,3.0,1.0,3.0,1.0,111
12,Practice,1019.19,P14,1103.12,1104.64,1.58,C,left,0.72,11,0.62,17,0.82,3,0.52,24,-999,2.0,3,2,1,-3.0,2.0,-3.0,2.0,-3.0,-1.0,0
12,Practice,1019.19,P15,1106.55,1108.07,3.04,C,left,0.78,7,0.68,14,0.88,5,0.58,26,-999,2.0,2,3,1,3.0,-2.0,3.0,-1.0,3.0,1.0,10
12,Practice,1019.19,P16,1111.45,1112.97,4.45,C,right,0.78,7,0.65,13,0.82,2,0.52,23,-999,2.0,2,1,3,3.0,-2.0,0.0,-2.0,-3.0,-2.0,1
12,Practice,1019.19,P17,1117.77,1119.28,2.65,C,left,0.72,10,0.65,13,0.82,5,0.52,26,-999,2.0,3,2,1,-3.0,1.0,0.0,-2.0,-3.0,1.0,110
12,Practice,1019.19,P18,1122.28,1123.8,7.35,A,right,0.78,7,0.68,13,0.88,2,0.58,23,-999,2.0,3,1,2,3.0,-2.0,3.0,-2.0,3.0,-2.0,10
12,Practice,1019.19,P19,1131.49,1133.01,4.05,B,left,0.78,11,0.62,15,0.85,4,0.55,25,-999,1.0,3,1,2,3.0,2.0,-3.0,0.0,0.0,0.0,110
12,Practice,1019.19,P20,1137.41,1138.93,6.02,B,right,0.72,7,0.65,14,0.88,4,0.58,25,-999,1.0,1,3,2,-3.0,-2.0,0.0,-1.0,3.0,0.0,11
12,Practice,1019.19,P21,1145.29,1146.81,4.77,A,right,0.78,9,0.65,16,0.85,2,0.55,23,-999,1.0,3,1,2,3.0,0.0,0.0,1.0,0.0,-2.0,0
12,Practice,1019.19,P22,1151.92,1153.44,4.71,A,left,0.72,9,0.62,15,0.85,2,0.55,23,-999,1.0,1,3,2,-3.0,0.0,-3.0,0.0,0.0,-2.0,10
12,Practice,1019.19,P23,1158.49,1160.0,3.64,A,right,0.72,7,0.65,13,0.88,3,0.58,24,-999,1.0,3,1,2,-3.0,-2.0,0.0,-2.0,3.0,-1.0,100
12,Practice,1019.19,P24,1163.98,1165.5,2.65,C,right,0.78,7,0.65,13,0.82,5,0.52,26,-999,2.0,2,1,3,3.0,-2.0,0.0,-2.0,-3.0,1.0,10
12,Practice,1019.19,P25,1168.48,1170.0,3.5,B,right,0.78,10,0.68,13,0.85,4,0.55,25,-999,1.0,2,3,1,3.0,1.0,3.0,-2.0,0.0,0.0,111
12,Estimation1,1281.45,E1,1281.51,1283.03,11.79,A,mid,0.75,11,0.65,15,0.85,-999,0.55,20,3,,2,1,3,,,,,,,11
12,Estimation1,1281.45,E2,1295.16,1296.67,4.05,C,mid,0.75,8,0.65,15,0.85,-999,0.55,20,1,2.0,1,3,2,,,,,,,101
12,Estimation1,1281.45,E3,1301.06,1302.57,5.2,B,left,0.75,8,0.65,15,0.85,-999,0.55,18,3,,3,1,2,,,,,,,100
12,Estimation1,1281.45,E4,1308.1,1309.62,9.33,B,right,0.75,10,0.65,15,0.85,-999,0.55,18,1,2.0,2,3,1,,,,,,,101
12,Estimation1,1281.45,E5,1319.28,1320.8,2.88,A,left,0.75,10,0.65,15,0.85,-999,0.55,19,3,,1,2,3,,,,,,,1
12,Estimation1,1281.45,E6,1324.02,1325.53,5.17,B,left,0.75,9,0.65,15,0.85,-999,0.55,19,1,2.0,2,1,3,,,,,,,101
12,Estimation1,1281.45,E7,1331.03,1332.55,7.18,B,mid,0.75,9,0.65,15,0.85,-999,0.55,20,3,,1,2,3,,,,,,,100
12,Estimation1,1281.45,E8,1340.08,1341.59,5.24,B,right,0.75,10,0.65,15,0.85,-999,0.55,20,1,2.0,2,3,1,,,,,,,100
12,Estimation1,1281.45,E9,1347.17,1348.69,5.62,A,right,0.75,10,0.65,15,0.85,-999,0.55,20,3,,3,2,1,,,,,,,100
12,Estimation1,1281.45,E10,1354.64,1356.15,3.34,B,right,0.75,10,0.65,15,0.85,5,0.55,20,1,2.0,1,3,2,,,,,,,0
12,Estimation1,1281.45,E11,1359.84,1361.35,3.74,A,left,0.75,10,0.65,15,0.85,5,0.55,20,2,1.0,1,2,3,,,,,,,101
12,Estimation1,1281.45,E12,1365.44,1366.95,5.07,B,left,0.75,10,0.65,15,0.85,7,0.55,20,1,2.0,2,1,3,,,,,,,110
12,Estimation1,1281.45,E13,1372.37,1373.88,3.66,C,right,0.75,10,0.65,15,0.85,7,0.55,20,2,1.0,2,1,3,,,,,,,11
12,Estimation1,1281.45,E14,1377.88,1379.4,3.55,B,mid,0.75,10,0.65,15,0.85,6,0.55,20,1,2.0,1,2,3,,,,,,,100
12,Estimation1,1281.45,E15,1383.28,1384.8,4.69,A,mid,0.75,10,0.65,15,0.85,6,0.55,20,2,1.0,2,1,3,,,,,,,110
12,Estimation1,1281.45,E16,1389.83,1391.34,7.31,C,right,0.75,10,0.65,15,0.85,7,0.55,20,1,2.0,1,2,3,,,,,,,100
12,Estimation1,1281.45,E17,1398.99,1400.51,4.13,A,right,0.75,10,0.65,15,0.85,7,0.55,20,2,1.0,3,1,2,,,,,,,100
12,1,1409.71,1,1409.79,1411.3,4.44,B,right,0.72,9,0.65,15,0.7,8,0.63,14,-999,31.0,1,3,2,-3.0,-1.0,0.0,0.0,3.0,-1.0,111
12,1,1409.71,2,1416.09,1417.6,12.73,A,right,0.72,9,0.68,14,0.85,7,0.55,20,-999,2.0,3,2,1,-3.0,-1.0,3.0,-1.0,0.0,0.0,111
12,1,1409.71,3,1430.66,1432.18,6.67,A,left,0.72,10,0.68,15,0.82,6,0.52,19,-999,1.0,1,3,2,-3.0,0.0,3.0,0.0,-3.0,-1.0,101
12,1,1409.71,4,1439.19,1440.71,6.19,B,mid,0.75,9,0.68,14,0.73,8,0.66,13,-999,32.0,1,2,3,0.0,-1.0,3.0,-1.0,0.0,0.0,101
12,1,1409.71,5,1447.24,1448.76,7.95,B,mid,0.72,10,0.68,14,0.7,9,0.66,13,-999,32.0,3,2,1,-3.0,0.0,3.0,-1.0,0.0,-1.0,1
12,1,1409.71,6,1457.06,1458.57,12.67,C,mid,0.32,31,0.6,16,0.78,12,-999.0,-999,-999,99.0,1,3,2,0.0,0.0,0.0,0.0,0.0,0.0,100
12,1,1409.71,7,1471.58,1473.1,8.28,A,mid,0.72,10,0.65,14,0.7,9,0.63,13,-999,32.0,2,3,1,-3.0,0.0,0.0,-1.0,3.0,0.0,101
12,1,1409.71,8,1481.71,1483.23,6.39,C,left,0.29,34,0.42,23,0.72,13,-999.0,-999,-999,99.0,3,2,1,0.0,0.0,0.0,0.0,0.0,0.0,111
12,1,1409.71,9,1489.96,1491.48,3.2,A,left,0.78,10,0.62,15,0.76,9,0.6,14,-999,32.0,1,3,2,3.0,0.0,-3.0,0.0,3.0,0.0,101
12,1,1409.71,10,1495.03,1496.54,5.13,B,left,0.78,9,0.68,15,0.88,7,0.58,20,-999,1.0,3,1,2,3.0,-1.0,3.0,0.0,3.0,0.0,0
12,1,1409.71,11,1502.01,1503.52,8.06,A,right,0.75,10,0.62,14,0.88,7,0.58,20,-999,2.0,3,1,2,0.0,0.0,-3.0,-1.0,3.0,0.0,0
12,1,1409.71,12,1511.92,1513.44,9.02,C,mid,0.27,37,0.47,21,0.86,11,-999.0,-999,-999,99.0,3,1,2,0.0,0.0,0.0,0.0,0.0,0.0,111
12,1,1409.71,13,1522.8,1524.32,3.82,A,right,0.72,10,0.62,14,0.85,7,0.55,20,-999,2.0,3,1,2,-3.0,0.0,-3.0,-1.0,0.0,0.0,10
12,1,1409.71,14,1528.47,1529.98,10.15,B,mid,0.78,9,0.68,14,0.76,8,0.66,13,-999,32.0,3,2,1,3.0,-1.0,3.0,-1.0,3.0,-1.0,110
12,1,1409.71,15,1540.48,1541.99,6.89,B,left,0.72,9,0.65,14,0.7,8,0.63,13,-999,31.0,2,1,3,-3.0,-1.0,0.0,-1.0,3.0,-1.0,0
12,1,1409.71,16,1549.23,1550.74,16.62,C,right,0.19,52,0.56,17,0.8,12,-999.0,-999,-999,99.0,2,1,3,0.0,0.0,0.0,0.0,0.0,0.0,11
12,1,1409.71,17,1567.7,1569.22,4.57,A,mid,0.75,10,0.65,15,0.73,9,0.63,14,-999,31.0,2,1,3,0.0,0.0,0.0,0.0,0.0,-1.0,101
12,1,1409.71,18,1574.13,1575.65,4.48,A,mid,0.78,10,0.62,14,0.85,7,0.55,20,-999,2.0,2,1,3,3.0,0.0,-3.0,-1.0,0.0,0.0,1
12,1,1409.71,19,1580.47,1581.98,6.92,A,mid,0.75,10,0.62,15,0.88,6,0.58,19,-999,1.0,2,3,1,0.0,0.0,-3.0,0.0,3.0,-1.0,11
12,1,1409.71,20,1589.25,1590.76,12.1,B,mid,0.78,9,0.62,15,0.76,8,0.6,14,-999,31.0,1,2,3,3.0,-1.0,-3.0,0.0,0.0,0.0,100
12,1,1409.71,21,1603.21,1604.72,3.96,A,left,0.75,10,0.65,15,0.85,7,0.55,20,-999,1.0,1,3,2,0.0,0.0,0.0,0.0,0.0,0.0,11
12,1,1409.71,22,1609.02,1610.54,8.98,A,left,0.72,10,0.68,15,0.82,7,0.52,20,-999,2.0,1,2,3,-3.0,0.0,3.0,0.0,-3.0,0.0,101
12,1,1409.71,23,1619.85,1621.37,3.8,B,mid,0.75,9,0.68,15,0.88,7,0.58,20,-999,1.0,1,2,3,0.0,-1.0,3.0,0.0,3.0,0.0,111
12,1,1409.71,24,1625.5,1627.02,4.25,A,mid,0.72,10,0.68,15,0.82,6,0.52,19,-999,1.0,2,1,3,-3.0,0.0,3.0,0.0,-3.0,-1.0,101
12,1,1409.71,25,1631.62,1633.13,6.19,C,left,0.32,31,0.48,20,0.85,11,-999.0,-999,-999,99.0,2,3,1,0.0,0.0,0.0,0.0,0.0,0.0,100
12,1,1409.71,26,1639.66,1641.18,7.88,B,left,0.78,9,0.62,15,0.85,6,0.55,19,-999,1.0,2,1,3,3.0,-1.0,-3.0,0.0,0.0,-1.0,0
12,1,1409.71,27,1649.39,1650.91,4.3,C,left,0.24,41,0.37,27,0.76,13,-999.0,-999,-999,99.0,2,3,1,0.0,0.0,0.0,0.0,0.0,0.0,110
12,1,1409.71,28,1655.54,1657.06,13.54,C,right,0.28,35,0.67,14,0.78,12,-999.0,-999,-999,99.0,1,2,3,0.0,0.0,0.0,0.0,0.0,0.0,10
12,1,1409.71,29,1670.94,1672.45,5.1,B,right,0.72,9,0.62,15,0.7,8,0.6,14,-999,32.0,1,3,2,-3.0,-1.0,-3.0,0.0,-3.0,-1.0,100
12,1,1409.71,30,1677.88,1679.4,5.77,B,left,0.72,9,0.68,14,0.7,8,0.66,13,-999,31.0,3,1,2,-3.0,-1.0,3.0,-1.0,-3.0,0.0,110
12,1,1409.71,31,1685.51,1687.03,6.69,B,right,0.72,9,0.65,15,0.85,7,0.55,20,-999,2.0,2,3,1,-3.0,-1.0,0.0,0.0,0.0,0.0,0
12,1,1409.71,32,1694.06,1695.58,3.42,B,left,0.78,10,0.68,15,0.88,6,0.58,19,-999,1.0,2,1,3,3.0,0.0,3.0,0.0,3.0,-1.0,111
12,1,1409.71,33,1699.34,1700.86,5.02,A,left,0.75,10,0.65,14,0.73,9,0.63,13,-999,31.0,1,2,3,0.0,0.0,0.0,-1.0,0.0,0.0,100
12,1,1409.71,34,1706.21,1707.72,5.46,B,mid,0.72,9,0.65,15,0.88,6,0.58,19,-999,2.0,1,2,3,-3.0,-1.0,0.0,0.0,3.0,-1.0,110
12,1,1409.71,35,1713.52,1715.04,4.75,B,mid,0.72,9,0.62,14,0.88,7,0.58,20,-999,2.0,1,2,3,-3.0,-1.0,-3.0,-1.0,3.0,0.0,11
12,1,1409.71,36,1720.12,1721.64,4.49,A,right,0.75,10,0.65,15,0.73,9,0.63,14,-999,31.0,3,1,2,0.0,0.0,0.0,0.0,0.0,0.0,110
12,1,1409.71,37,1726.47,1727.98,11.44,B,left,0.78,9,0.62,14,0.76,8,0.6,13,-999,32.0,2,1,3,3.0,-1.0,-3.0,-1.0,0.0,-1.0,110
12,1,1409.71,38,1750.86,1752.38,4.77,B,right,0.78,9,0.68,15,0.85,6,0.55,19,-999,1.0,1,3,2,3.0,-1.0,3.0,0.0,0.0,-1.0,1
12,1,1409.71,39,1757.49,1759.01,4.18,A,left,0.72,10,0.62,14,0.7,9,0.6,13,-999,32.0,1,2,3,-3.0,0.0,-3.0,-1.0,0.0,0.0,110
12,1,1409.71,40,1763.52,1765.04,5.17,C,mid,0.27,37,0.61,16,0.89,11,-999.0,-999,-999,99.0,3,1,2,0.0,0.0,0.0,0.0,0.0,0.0,10
12,1,1409.71,41,1770.55,1772.07,10.06,A,right,0.72,10,0.65,15,0.7,9,0.63,14,-999,31.0,3,2,1,-3.0,0.0,0.0,0.0,-3.0,-1.0,1
12,1,1409.71,42,1782.47,1783.98,9.13,B,left,0.72,9,0.65,15,0.7,8,0.63,14,-999,31.0,2,1,3,-3.0,-1.0,0.0,0.0,3.0,-1.0,10
12,1,1409.71,43,1793.45,1794.96,2.67,A,mid,0.78,10,0.62,14,0.76,9,0.6,13,-999,31.0,2,3,1,3.0,0.0,-3.0,-1.0,-3.0,0.0,11
12,1,1409.71,44,1797.96,1799.48,8.33,B,mid,0.78,10,0.65,14,0.82,6,0.52,19,-999,1.0,1,2,3,3.0,0.0,0.0,-1.0,-3.0,-1.0,10
12,1,1409.71,45,1808.14,1809.66,4.22,B,mid,0.75,9,0.62,15,0.73,8,0.6,14,-999,32.0,1,2,3,0.0,-1.0,-3.0,0.0,-3.0,0.0,11
12,1,1409.71,46,1814.22,1815.74,5.26,A,right,0.72,10,0.62,14,0.85,7,0.55,20,-999,2.0,3,2,1,-3.0,0.0,-3.0,-1.0,0.0,0.0,0
12,1,1409.71,47,1821.34,1822.85,6.89,A,mid,0.78,10,0.65,15,0.76,9,0.63,14,-999,32.0,2,1,3,3.0,0.0,0.0,0.0,-3.0,-1.0,1
12,1,1409.71,48,1830.08,1831.6,7.12,A,mid,0.78,10,0.62,14,0.85,6,0.55,19,-999,1.0,2,1,3,3.0,0.0,-3.0,-1.0,0.0,-1.0,10
12,1,1409.71,49,1839.05,1840.56,5.65,B,mid,0.78,10,0.68,15,0.82,7,0.52,20,-999,1.0,1,2,3,3.0,0.0,3.0,0.0,-3.0,0.0,0
12,1,1409.71,50,1846.55,1848.06,6.6,A,mid,0.72,10,0.62,15,0.7,9,0.6,14,-999,32.0,2,1,3,-3.0,0.0,-3.0,0.0,0.0,0.0,100
12,1,1409.71,51,1855.01,1856.53,3.87,B,mid,0.72,10,0.65,15,0.82,6,0.52,19,-999,2.0,1,2,3,-3.0,0.0,0.0,0.0,-3.0,-1.0,0
12,1,1409.71,52,1860.72,1862.24,2.13,B,right,0.75,9,0.65,15,0.73,8,0.63,14,-999,31.0,2,3,1,0.0,-1.0,0.0,0.0,3.0,-1.0,10
12,1,1409.71,53,1864.71,1866.22,7.34,B,mid,0.75,9,0.62,15,0.88,6,0.58,19,-999,2.0,1,2,3,0.0,-1.0,-3.0,0.0,3.0,-1.0,101
12,1,1409.71,54,1873.9,1875.42,3.45,A,left,0.75,10,0.65,14,0.85,6,0.55,19,-999,2.0,1,3,2,0.0,0.0,0.0,-1.0,0.0,-1.0,111
12,1,1409.71,55,1879.2,1880.72,3.37,B,left,0.78,9,0.65,15,0.76,8,0.63,14,-999,32.0,2,1,3,3.0,-1.0,0.0,0.0,-3.0,-1.0,100
12,1,1409.71,56,1884.43,1885.95,6.53,A,right,0.78,10,0.65,14,0.82,6,0.52,19,-999,2.0,3,1,2,3.0,0.0,0.0,-1.0,-3.0,-1.0,110
12,1,1409.71,57,1892.81,1894.33,4.57,B,mid,0.72,9,0.68,15,0.88,7,0.58,20,-999,2.0,3,2,1,-3.0,-1.0,3.0,0.0,3.0,0.0,1
12,1,1409.71,58,1899.23,1900.74,3.67,A,right,0.78,10,0.65,14,0.82,7,0.52,20,-999,1.0,3,1,2,3.0,0.0,0.0,-1.0,-3.0,0.0,111
12,1,1409.71,59,1904.76,1906.28,3.08,A,right,0.78,10,0.65,15,0.76,9,0.63,14,-999,32.0,3,2,1,3.0,0.0,0.0,0.0,0.0,0.0,0
12,1,1409.71,60,1909.69,1911.21,3.51,C,right,0.19,52,0.59,16,0.81,12,-999.0,-999,-999,99.0,1,2,3,0.0,0.0,0.0,0.0,0.0,0.0,0
12,1,1409.71,61,1915.06,1916.57,6.53,A,mid,0.72,10,0.62,15,0.7,9,0.6,14,-999,31.0,2,3,1,-3.0,0.0,-3.0,0.0,0.0,-1.0,110
12,1,1409.71,62,1923.44,1924.95,11.25,A,mid,0.75,9,0.65,14,0.73,8,0.63,13,-999,32.0,2,1,3,0.0,-1.0,0.0,-1.0,3.0,0.0,101
12,1,1409.71,63,1936.53,1938.05,2.23,A,mid,0.72,10,0.62,15,0.7,9,0.6,14,-999,32.0,2,1,3,-3.0,0.0,-3.0,0.0,3.0,-1.0,111
12,1,1409.71,64,1940.62,1942.13,4.02,C,mid,0.31,32,0.38,26,0.85,11,-999.0,-999,-999,99.0,1,3,2,0.0,0.0,0.0,0.0,0.0,0.0,10
12,1,1409.71,65,1946.5,1948.01,1.48,C,right,0.16,62,0.46,21,0.87,11,-999.0,-999,-999,99.0,1,2,3,0.0,0.0,0.0,0.0,0.0,0.0,111
12,1,1409.71,66,1949.83,1951.34,3.36,A,right,0.75,10,0.65,14,0.73,9,0.63,13,-999,31.0,3,1,2,0.0,0.0,0.0,-1.0,-3.0,-1.0,111
12,1,1409.71,67,1955.04,1956.56,2.67,A,right,0.75,10,0.65,15,0.82,6,0.52,19,-999,1.0,3,2,1,0.0,0.0,0.0,0.0,-3.0,-1.0,100
12,1,1409.71,68,1959.56,1961.08,3.63,A,right,0.78,10,0.68,15,0.76,9,0.66,14,-999,31.0,3,1,2,3.0,0.0,3.0,0.0,0.0,0.0,0
12,1,1409.71,69,1965.04,1966.56,4.49,B,right,0.75,9,0.68,14,0.85,6,0.55,19,-999,2.0,1,3,2,0.0,-1.0,3.0,-1.0,0.0,-1.0,110
12,1,1409.71,70,1971.39,1972.9,5.42,A,right,0.72,10,0.68,14,0.88,7,0.58,20,-999,2.0,3,1,2,-3.0,0.0,3.0,-1.0,3.0,0.0,110
12,1,1409.71,71,1978.67,1980.19,2.74,B,left,0.75,9,0.68,14,0.73,8,0.66,13,-999,31.0,2,1,3,0.0,-1.0,3.0,-1.0,0.0,-1.0,110
12,1,1409.71,72,1983.27,1984.78,4.35,A,right,0.72,10,0.65,15,0.82,6,0.52,19,-999,1.0,3,2,1,-3.0,0.0,0.0,0.0,-3.0,-1.0,110
12,1,1409.71,73,1989.48,1991.0,3.83,B,mid,0.78,9,0.62,15,0.76,8,0.6,14,-999,32.0,3,2,1,3.0,-1.0,-3.0,0.0,-3.0,-1.0,100
12,1,1409.71,74,1995.16,1996.68,2.58,B,left,0.78,9,0.68,15,0.76,8,0.66,14,-999,31.0,2,1,3,3.0,-1.0,3.0,0.0,0.0,0.0,110
12,1,1409.71,75,1999.6,2001.11,4.08,C,right,0.75,9,0.62,15,0.88,7,0.58,20,-999,1.0,1,2,3,0.0,-1.0,-3.0,0.0,3.0,0.0,0
12,Estimation2,2048.26,E1,2048.33,2049.85,3.0,B,left,0.75,11,0.65,15,0.85,-999,0.55,20,3,,3,1,2,,,,,,,1
12,Estimation2,2048.26,E2,2053.18,2054.69,4.6,B,right,0.75,12,0.65,15,0.85,-999,0.55,20,1,2.0,1,3,2,,,,,,,1
12,Estimation2,2048.26,E3,2059.63,2061.14,1.9,A,left,0.75,12,0.65,15,0.85,-999,0.55,28,3,,1,3,2,,,,,,,0
12,Estimation2,2048.26,E4,2063.38,2064.89,1.79,B,mid,0.75,12,0.65,15,0.85,6,0.55,28,1,2.0,1,2,3,,,,,,,0
12,Estimation2,2048.26,E5,2067.02,2068.54,2.63,A,right,0.75,12,0.65,15,0.85,6,0.55,32,2,1.0,3,1,2,,,,,,,101
12,Estimation2,2048.26,E6,2071.51,2073.02,2.83,C,mid,0.75,12,0.65,15,0.85,8,0.55,32,1,2.0,3,1,2,,,,,,,10
12,Estimation2,2048.26,E7,2076.19,2077.7,6.04,A,right,0.75,12,0.65,15,0.85,8,0.55,30,2,1.0,3,2,1,,,,,,,110
12,Estimation2,2048.26,E8,2084.09,2085.6,6.72,C,mid,0.75,12,0.65,15,0.85,9,0.55,30,1,2.0,3,1,2,,,,,,,110
12,Estimation2,2048.26,E9,2092.67,2094.18,2.72,A,left,0.75,12,0.65,15,0.85,9,0.55,29,2,1.0,1,2,3,,,,,,,101
12,Estimation2,2048.26,E10,2097.25,2098.76,5.76,C,mid,0.75,12,0.65,15,0.85,10,0.55,29,1,2.0,3,1,2,,,,,,,110
12,Estimation2,2048.26,E11,2104.86,2106.38,3.07,C,mid,0.75,12,0.65,15,0.85,10,0.55,29,2,1.0,1,3,2,,,,,,,101
12,2,2115.23,1,2115.31,2116.82,3.63,A,left,0.72,11,0.68,14,0.85,10,0.55,29,-999,2.0,1,3,2,-3.0,-1.0,3.0,-1.0,0.0,0.0,111
12,2,2115.23,2,2120.79,2122.31,12.28,B,left,0.72,12,0.62,14,0.85,10,0.55,29,-999,2.0,2,1,3,-3.0,0.0,-3.0,-1.0,0.0,0.0,11
12,2,2115.23,3,2134.92,2136.43,8.09,B,left,0.72,11,0.68,15,0.88,10,0.58,29,-999,2.0,2,1,3,-3.0,-1.0,3.0,0.0,3.0,0.0,100
12,2,2115.23,4,2144.87,2146.38,2.94,A,right,0.75,11,0.62,15,0.73,10,0.6,14,-999,32.0,3,2,1,0.0,-1.0,-3.0,0.0,-3.0,0.0,0
12,2,2115.23,5,2149.66,2151.18,2.33,A,mid,0.75,11,0.68,14,0.73,10,0.66,13,-999,32.0,2,3,1,0.0,-1.0,3.0,-1.0,0.0,0.0,111
12,2,2115.23,6,2153.85,2155.36,6.01,A,right,0.78,12,0.62,14,0.85,10,0.55,29,-999,2.0,3,2,1,3.0,0.0,-3.0,-1.0,0.0,0.0,0
12,2,2115.23,7,2161.71,2163.23,3.2,A,mid,0.72,12,0.65,15,0.7,11,0.63,14,-999,31.0,2,1,3,-3.0,0.0,0.0,0.0,-3.0,-1.0,1
12,2,2115.23,8,2166.76,2168.27,4.61,A,right,0.72,11,0.65,15,0.7,10,0.63,14,-999,31.0,3,2,1,-3.0,-1.0,0.0,0.0,3.0,-1.0,10
12,2,2115.23,9,2173.22,2174.74,2.72,C,mid,0.75,11,0.62,15,0.88,10,0.58,29,-999,1.0,3,1,2,0.0,-1.0,-3.0,0.0,3.0,0.0,110
12,2,2115.23,10,2177.79,2179.3,7.46,A,right,0.72,12,0.68,15,0.82,10,0.52,29,-999,2.0,3,1,2,-3.0,0.0,3.0,0.0,-3.0,0.0,0
12,2,2115.23,11,2187.1,2188.62,5.95,C,right,0.75,12,0.65,14,0.73,11,0.63,13,-999,31.0,2,1,3,0.0,0.0,0.0,-1.0,-3.0,-1.0,110
12,2,2115.23,12,2194.9,2196.42,3.15,A,right,0.72,12,0.65,15,0.82,9,0.52,28,-999,2.0,3,1,2,-3.0,0.0,0.0,0.0,-3.0,-1.0,110
12,2,2115.23,13,2199.9,2201.41,2.59,A,left,0.72,12,0.62,15,0.7,11,0.6,14,-999,31.0,1,3,2,-3.0,0.0,-3.0,0.0,0.0,-1.0,0
12,2,2115.23,14,2204.35,2205.86,5.51,A,right,0.75,12,0.65,15,0.73,11,0.63,14,-999,31.0,3,2,1,0.0,0.0,0.0,0.0,0.0,-1.0,1
12,2,2115.23,15,2211.71,2213.23,10.44,C,left,0.27,37,0.47,21,0.86,11,-999.0,-999,-999,99.0,2,3,1,0.0,0.0,0.0,0.0,0.0,0.0,11
12,2,2115.23,16,2224.01,2225.52,1.47,C,mid,0.32,31,0.48,20,0.85,11,-999.0,-999,-999,99.0,1,3,2,0.0,0.0,0.0,0.0,0.0,0.0,10
12,2,2115.23,17,2227.32,2228.84,1.79,A,right,0.75,11,0.65,14,0.73,10,0.63,13,-999,32.0,3,2,1,0.0,-1.0,0.0,-1.0,3.0,0.0,10
12,2,2115.23,18,2230.97,2232.49,1.89,A,right,0.78,11,0.62,15,0.76,10,0.6,14,-999,31.0,3,1,2,3.0,-1.0,-3.0,0.0,0.0,0.0,11
12,2,2115.23,19,2234.72,2236.24,2.83,A,mid,0.78,12,0.65,15,0.76,11,0.63,14,-999,32.0,2,3,1,3.0,0.0,0.0,0.0,-3.0,-1.0,101
12,2,2115.23,20,2239.4,2240.92,2.38,A,right,0.72,12,0.68,14,0.7,11,0.66,13,-999,32.0,3,2,1,-3.0,0.0,3.0,-1.0,0.0,-1.0,10
12,2,2115.23,21,2243.63,2245.15,3.12,A,right,0.75,12,0.65,15,0.82,9,0.52,28,-999,1.0,3,2,1,0.0,0.0,0.0,0.0,-3.0,-1.0,111
12,2,2115.23,22,2248.6,2250.11,7.13,A,right,0.78,12,0.68,15,0.76,11,0.66,14,-999,31.0,3,1,2,3.0,0.0,3.0,0.0,0.0,0.0,10
12,2,2115.23,23,2257.58,2259.09,5.17,A,mid,0.72,12,0.62,15,0.7,11,0.6,14,-999,32.0,2,3,1,-3.0,0.0,-3.0,0.0,0.0,0.0,100
12,2,2115.23,24,2264.61,2266.13,3.82,A,left,0.72,11,0.65,14,0.7,10,0.63,13,-999,31.0,1,2,3,-3.0,-1.0,0.0,-1.0,3.0,-1.0,11
12,2,2115.23,25,2270.29,2271.81,3.6,A,mid,0.78,11,0.68,15,0.76,10,0.66,14,-999,31.0,2,3,1,3.0,-1.0,3.0,0.0,0.0,0.0,1
12,2,2115.23,26,2275.74,2277.26,7.45,A,left,0.78,11,0.62,14,0.76,10,0.6,13,-999,32.0,1,3,2,3.0,-1.0,-3.0,-1.0,0.0,-1.0,0
12,2,2115.23,27,2285.04,2286.55,5.74,A,right,0.72,12,0.65,15,0.82,9,0.52,28,-999,1.0,3,1,2,-3.0,0.0,0.0,0.0,-3.0,-1.0,100
12,2,2115.23,28,2292.63,2294.15,4.37,C,right,0.78,12,0.68,15,0.82,10,0.52,29,-999,1.0,1,2,3,3.0,0.0,3.0,0.0,-3.0,0.0,0
12,2,2115.23,29,2298.87,2300.38,3.17,C,right,0.27,37,0.61,16,0.89,11,-999.0,-999,-999,99.0,2,1,3,0.0,0.0,0.0,0.0,0.0,0.0,10
12,2,2115.23,30,2303.9,2305.41,3.15,A,left,0.72,12,0.62,15,0.7,11,0.6,14,-999,32.0,1,3,2,-3.0,0.0,-3.0,0.0,3.0,-1.0,111
12,2,2115.23,31,2308.9,2310.41,6.89,A,left,0.75,11,0.62,15,0.88,9,0.58,28,-999,2.0,1,2,3,0.0,-1.0,-3.0,0.0,3.0,-1.0,10
12,2,2115.23,32,2317.64,2319.16,8.86,A,right,0.75,12,0.65,14,0.73,11,0.63,13,-999,31.0,3,2,1,0.0,0.0,0.0,-1.0,0.0,0.0,100
12,2,2115.23,33,2328.36,2329.87,17.25,A,left,0.72,11,0.65,15,0.7,10,0.63,14,-999,31.0,1,2,3,-3.0,-1.0,0.0,0.0,3.0,-1.0,101
12,2,2115.23,34,2347.47,2348.98,4.07,C,mid,0.32,31,0.6,16,0.78,12,-999.0,-999,-999,99.0,1,3,2,0.0,0.0,0.0,0.0,0.0,0.0,11
12,2,2115.23,35,2353.4,2354.91,4.37,C,mid,0.19,52,0.56,17,0.8,12,-999.0,-999,-999,99.0,1,3,2,0.0,0.0,0.0,0.0,0.0,0.0,11
12,2,2115.23,36,2359.63,2361.15,3.34,C,mid,0.75,11,0.68,15,0.88,10,0.58,29,-999,1.0,3,1,2,0.0,-1.0,3.0,0.0,3.0,0.0,111
12,2,2115.23,37,2364.83,2366.34,3.15,A,left,0.78,11,0.62,15,0.76,10,0.6,14,-999,32.0,1,3,2,3.0,-1.0,-3.0,0.0,-3.0,-1.0,111
12,2,2115.23,38,2378.11,2379.62,2.97,C,right,0.31,32,0.38,26,0.85,11,-999.0,-999,-999,99.0,2,1,3,0.0,0.0,0.0,0.0,0.0,0.0,10
12,2,2115.23,39,2382.94,2384.45,2.87,A,left,0.72,11,0.62,15,0.7,10,0.6,14,-999,32.0,1,2,3,-3.0,-1.0,-3.0,0.0,-3.0,-1.0,0
12,2,2115.23,40,2387.67,2389.19,2.67,A,right,0.78,12,0.65,14,0.82,9,0.52,28,-999,2.0,3,1,2,3.0,0.0,0.0,-1.0,-3.0,-1.0,0
12,2,2115.23,41,2392.2,2393.72,4.51,A,left,0.75,12,0.62,14,0.88,10,0.58,29,-999,2.0,1,2,3,0.0,0.0,-3.0,-1.0,3.0,0.0,100
12,2,2115.23,42,2398.57,2400.08,3.42,A,mid,0.78,12,0.68,15,0.88,9,0.58,28,-999,1.0,2,1,3,3.0,0.0,3.0,0.0,3.0,-1.0,101
12,2,2115.23,43,2403.83,2405.35,5.82,B,mid,0.78,11,0.62,15,0.85,9,0.55,28,-999,1.0,1,2,3,3.0,-1.0,-3.0,0.0,0.0,-1.0,100
12,2,2115.23,44,2411.51,2413.03,3.06,A,mid,0.72,12,0.62,14,0.85,10,0.55,29,-999,2.0,2,3,1,-3.0,0.0,-3.0,-1.0,0.0,0.0,11
12,2,2115.23,45,2416.43,2417.94,9.24,C,left,0.78,11,0.68,15,0.88,10,0.58,29,-999,1.0,3,2,1,3.0,-1.0,3.0,0.0,3.0,0.0,11
12,2,2115.23,46,2427.52,2429.04,10.79,A,mid,0.75,11,0.68,14,0.73,10,0.66,13,-999,31.0,2,1,3,0.0,-1.0,3.0,-1.0,0.0,-1.0,10
12,2,2115.23,47,2440.17,2441.69,3.85,A,left,0.72,11,0.68,14,0.7,10,0.66,13,-999,31.0,1,3,2,-3.0,-1.0,3.0,-1.0,-3.0,0.0,10
12,2,2115.23,48,2445.88,2447.4,4.83,A,mid,0.78,12,0.62,15,0.76,11,0.6,14,-999,32.0,2,1,3,3.0,0.0,-3.0,0.0,3.0,0.0,110
12,2,2115.23,49,2452.57,2454.08,3.02,A,left,0.78,11,0.68,15,0.85,9,0.55,28,-999,1.0,1,3,2,3.0,-1.0,3.0,0.0,0.0,-1.0,0
12,2,2115.23,50,2457.43,2458.95,4.35,A,left,0.72,11,0.65,15,0.88,9,0.58,28,-999,2.0,1,2,3,-3.0,-1.0,0.0,0.0,3.0,-1.0,110
12,2,2115.23,51,2463.63,2465.14,3.03,C,left,0.29,34,0.42,23,0.72,13,-999.0,-999,-999,99.0,2,3,1,0.0,0.0,0.0,0.0,0.0,0.0,111
12,2,2115.23,52,2468.51,2470.03,2.31,A,mid,0.78,11,0.65,15,0.76,10,0.63,14,-999,32.0,2,1,3,3.0,-1.0,0.0,0.0,-3.0,-1.0,101
12,2,2115.23,53,2472.68,2474.19,5.6,A,right,0.78,12,0.62,14,0.76,11,0.6,13,-999,31.0,3,2,1,3.0,0.0,-3.0,-1.0,-3.0,0.0,100
12,2,2115.23,54,2480.14,2481.66,5.51,A,left,0.72,12,0.68,15,0.82,9,0.52,28,-999,1.0,1,2,3,-3.0,0.0,3.0,0.0,-3.0,-1.0,111
12,2,2115.23,55,2487.5,2489.02,7.0,A,left,0.72,11,0.62,14,0.88,10,0.58,29,-999,2.0,1,2,3,-3.0,-1.0,-3.0,-1.0,3.0,0.0,1
12,2,2115.23,56,2496.35,2497.87,3.5,A,right,0.75,12,0.65,14,0.85,9,0.55,28,-999,2.0,3,2,1,0.0,0.0,0.0,-1.0,0.0,-1.0,0
12,2,2115.23,57,2501.7,2503.22,5.79,A,mid,0.78,12,0.65,15,0.76,11,0.63,14,-999,32.0,2,3,1,3.0,0.0,0.0,0.0,0.0,0.0,10
12,2,2115.23,58,2509.35,2510.86,9.24,C,mid,0.24,41,0.37,27,0.76,13,-999.0,-999,-999,99.0,3,1,2,0.0,0.0,0.0,0.0,0.0,0.0,111
12,2,2115.23,59,2520.44,2521.96,1.35,A,right,0.78,12,0.65,14,0.82,9,0.52,28,-999,1.0,3,2,1,3.0,0.0,0.0,-1.0,-3.0,-1.0,110
12,2,2115.23,60,2523.66,2525.18,3.89,A,left,0.75,11,0.68,14,0.85,9,0.55,28,-999,2.0,1,2,3,0.0,-1.0,3.0,-1.0,0.0,-1.0,100
12,2,2115.23,61,2529.41,2530.92,5.45,A,left,0.75,12,0.65,15,0.73,11,0.63,14,-999,31.0,1,2,3,0.0,0.0,0.0,0.0,0.0,0.0,0
12,2,2115.23,62,2536.7,2538.22,18.16,A,left,0.72,12,0.62,14,0.7,11,0.6,13,-999,32.0,1,2,3,-3.0,0.0,-3.0,-1.0,0.0,0.0,10
12,2,2115.23,63,2556.71,2558.23,2.21,A,right,0.72,11,0.65,15,0.85,10,0.55,29,-999,2.0,3,1,2,-3.0,-1.0,0.0,0.0,0.0,0.0,0
12,2,2115.23,64,2560.78,2562.3,2.5,A,mid,0.78,12,0.62,14,0.85,9,0.55,28,-999,1.0,2,3,1,3.0,0.0,-3.0,-1.0,0.0,-1.0,110
12,2,2115.23,65,2565.13,2566.64,1.6,C,left,0.16,62,0.46,21,0.87,11,-999.0,-999,-999,99.0,3,2,1,0.0,0.0,0.0,0.0,0.0,0.0,10
12,2,2115.23,66,2568.58,2570.09,5.8,C,left,0.75,12,0.65,15,0.85,10,0.55,29,-999,1.0,3,2,1,0.0,0.0,0.0,0.0,0.0,0.0,110
12,2,2115.23,67,2576.24,2577.76,3.6,A,right,0.72,12,0.68,14,0.88,10,0.58,29,-999,2.0,3,1,2,-3.0,0.0,3.0,-1.0,3.0,0.0,10
12,2,2115.23,68,2581.71,2583.22,12.79,C,right,0.78,12,0.65,14,0.82,10,0.52,29,-999,1.0,2,1,3,3.0,0.0,0.0,-1.0,-3.0,0.0,1
12,2,2115.23,69,2596.35,2597.87,6.89,C,left,0.19,52,0.59,16,0.81,12,-999.0,-999,-999,99.0,3,2,1,0.0,0.0,0.0,0.0,0.0,0.0,110
12,2,2115.23,70,2605.1,2606.62,5.5,A,left,0.75,11,0.65,15,0.73,10,0.63,14,-999,31.0,1,3,2,0.0,-1.0,0.0,0.0,3.0,-1.0,110
12,2,2115.23,71,2612.45,2613.96,2.85,A,right,0.72,12,0.65,14,0.7,11,0.63,13,-999,32.0,3,2,1,-3.0,0.0,0.0,-1.0,3.0,0.0,110
12,2,2115.23,72,2617.16,2618.68,3.89,B,mid,0.72,12,0.68,15,0.82,9,0.52,28,-999,1.0,3,2,1,-3.0,0.0,3.0,0.0,-3.0,-1.0,11
12,2,2115.23,73,2622.91,2624.43,3.45,A,left,0.75,12,0.62,15,0.88,9,0.58,28,-999,1.0,1,3,2,0.0,0.0,-3.0,0.0,3.0,-1.0,111
12,2,2115.23,74,2628.22,2629.74,6.96,C,mid,0.28,35,0.67,14,0.78,12,-999.0,-999,-999,99.0,3,1,2,0.0,0.0,0.0,0.0,0.0,0.0,100
12,2,2115.23,75,2637.04,2638.55,4.68,A,right,0.78,11,0.68,14,0.76,10,0.66,13,-999,32.0,3,2,1,3.0,-1.0,3.0,-1.0,3.0,-1.0,11
12,Estimation3,2701.45,E1,2701.5,2703.02,2.9,A,left,0.75,11,0.65,15,0.85,-999,0.55,20,3,,1,2,3,,,,,,,110
12,Estimation3,2701.45,E2,2706.25,2707.77,2.7,B,mid,0.75,8,0.65,15,0.85,-999,0.55,20,1,2.0,1,2,3,,,,,,,0
12,Estimation3,2701.45,E3,2710.8,2712.31,1.78,B,mid,0.75,8,0.65,15,0.85,-999,0.55,28,3,,3,2,1,,,,,,,111
12,Estimation3,2701.45,E4,2714.43,2715.95,7.69,C,mid,0.75,10,0.65,15,0.85,-999,0.55,28,1,2.0,3,1,2,,,,,,,101
12,Estimation3,2701.45,E5,2723.98,2725.49,2.19,A,left,0.75,10,0.65,15,0.85,-999,0.55,24,3,,1,2,3,,,,,,,11
12,Estimation3,2701.45,E6,2728.03,2729.54,4.93,B,mid,0.75,9,0.65,15,0.85,-999,0.55,24,1,2.0,3,2,1,,,,,,,0
12,Estimation3,2701.45,E7,2734.81,2736.32,4.37,B,right,0.75,9,0.65,15,0.85,-999,0.55,26,3,,1,3,2,,,,,,,0
12,Estimation3,2701.45,E8,2741.04,2742.55,8.42,B,right,0.75,10,0.65,15,0.85,-999,0.55,26,1,2.0,2,3,1,,,,,,,10
12,Estimation3,2701.45,E9,2751.32,2752.83,8.37,A,mid,0.75,10,0.65,15,0.85,-999,0.55,27,3,,2,1,3,,,,,,,11
12,Estimation3,2701.45,E10,2761.55,2763.06,1.93,C,mid,0.75,10,0.65,15,0.85,5,0.55,27,1,2.0,1,3,2,,,,,,,100
12,Estimation3,2701.45,E11,2765.33,2766.85,3.02,A,right,0.75,10,0.65,15,0.85,5,0.55,27,2,1.0,3,2,1,,,,,,,101
12,Estimation3,2701.45,E12,2770.21,2771.73,3.42,B,mid,0.75,10,0.65,15,0.85,7,0.55,27,1,2.0,1,2,3,,,,,,,101
12,Estimation3,2701.45,E13,2775.49,2777.01,2.55,A,right,0.75,10,0.65,15,0.85,7,0.55,27,2,1.0,3,2,1,,,,,,,10
12,Estimation3,2701.45,E14,2779.89,2781.41,2.12,B,right,0.75,10,0.65,15,0.85,8,0.55,27,1,2.0,2,3,1,,,,,,,111
12,Estimation3,2701.45,E15,2783.86,2785.37,2.55,A,right,0.75,10,0.65,15,0.85,8,0.55,27,2,1.0,3,2,1,,,,,,,10
12,3,2790.88,1,2790.96,2792.47,2.91,A,left,0.78,10,0.65,15,0.76,9,0.63,14,-999,32.0,1,3,2,3.0,0.0,0.0,0.0,-3.0,-1.0,1
12,3,2790.88,2,2795.72,2797.24,8.83,B,left,0.78,9,0.65,15,0.76,8,0.63,14,-999,32.0,3,1,2,3.0,-1.0,0.0,0.0,-3.0,-1.0,10
12,3,2790.88,3,2806.4,2807.92,4.3,A,left,0.78,10,0.62,14,0.85,7,0.55,26,-999,1.0,1,2,3,3.0,0.0,-3.0,-1.0,0.0,-1.0,11
12,3,2790.88,4,2812.57,2814.08,1.92,C,mid,0.32,31,0.6,16,0.78,12,-999.0,-999,-999,99.0,1,3,2,0.0,0.0,0.0,0.0,0.0,0.0,10
12,3,2790.88,5,2816.33,2817.85,6.64,A,right,0.72,10,0.62,15,0.7,9,0.6,14,-999,32.0,3,1,2,-3.0,0.0,-3.0,0.0,3.0,-1.0,1
12,3,2790.88,6,2824.83,2826.34,3.42,A,mid,0.78,10,0.68,15,0.82,8,0.52,27,-999,1.0,2,3,1,3.0,0.0,3.0,0.0,-3.0,0.0,101
12,3,2790.88,7,2830.11,2831.63,6.02,B,mid,0.78,9,0.68,15,0.76,8,0.66,14,-999,31.0,3,2,1,3.0,-1.0,3.0,0.0,0.0,0.0,110
12,3,2790.88,8,2837.99,2839.51,3.26,A,right,0.78,10,0.65,14,0.82,8,0.52,27,-999,1.0,3,2,1,3.0,0.0,0.0,-1.0,-3.0,0.0,111
12,3,2790.88,9,2843.11,2844.62,3.09,B,mid,0.78,9,0.68,15,0.85,7,0.55,26,-999,1.0,1,2,3,3.0,-1.0,3.0,0.0,0.0,-1.0,1
12,3,2790.88,10,2848.05,2849.57,4.07,A,left,0.78,10,0.62,14,0.76,9,0.6,13,-999,31.0,1,2,3,3.0,0.0,-3.0,-1.0,-3.0,0.0,0
12,3,2790.88,11,2853.97,2855.48,9.31,A,mid,0.72,10,0.62,15,0.7,9,0.6,14,-999,32.0,2,3,1,-3.0,0.0,-3.0,0.0,0.0,0.0,111
12,3,2790.88,12,2865.13,2866.65,7.23,B,right,0.72,9,0.62,15,0.7,8,0.6,14,-999,32.0,1,3,2,-3.0,-1.0,-3.0,0.0,-3.0,-1.0,11
12,3,2790.88,13,2874.21,2875.73,8.46,A,mid,0.75,10,0.65,14,0.73,9,0.63,13,-999,31.0,2,1,3,0.0,0.0,0.0,-1.0,0.0,0.0,11
12,3,2790.88,14,2884.53,2886.04,6.64,B,mid,0.78,9,0.62,15,0.76,8,0.6,14,-999,32.0,1,2,3,3.0,-1.0,-3.0,0.0,-3.0,-1.0,110
12,3,2790.88,15,2893.02,2894.54,2.86,A,right,0.78,10,0.68,15,0.88,7,0.58,26,-999,1.0,3,1,2,3.0,0.0,3.0,0.0,3.0,-1.0,10
12,3,2790.88,16,2897.74,2899.25,5.21,A,mid,0.75,10,0.62,14,0.88,8,0.58,27,-999,2.0,2,1,3,0.0,0.0,-3.0,-1.0,3.0,0.0,100
12,3,2790.88,17,2904.8,2906.32,8.82,C,right,0.27,37,0.61,16,0.89,11,-999.0,-999,-999,99.0,1,2,3,0.0,0.0,0.0,0.0,0.0,0.0,11
12,3,2790.88,18,2915.48,2917.0,14.07,A,left,0.78,10,0.65,15,0.76,9,0.63,14,-999,32.0,1,3,2,3.0,0.0,0.0,0.0,0.0,0.0,111
12,3,2790.88,19,2931.41,2932.93,4.24,B,right,0.78,9,0.62,14,0.76,8,0.6,13,-999,32.0,2,3,1,3.0,-1.0,-3.0,-1.0,0.0,-1.0,11
12,3,2790.88,20,2937.51,2939.02,8.71,B,right,0.78,9,0.68,14,0.76,8,0.66,13,-999,32.0,2,3,1,3.0,-1.0,3.0,-1.0,3.0,-1.0,10
12,3,2790.88,21,2948.07,2949.59,8.46,C,left,0.27,37,0.47,21,0.86,11,-999.0,-999,-999,99.0,3,2,1,0.0,0.0,0.0,0.0,0.0,0.0,101
12,3,2790.88,22,2958.38,2959.9,7.98,C,left,0.72,9,0.62,14,0.88,8,0.58,27,-999,2.0,3,2,1,-3.0,-1.0,-3.0,-1.0,3.0,0.0,111
12,3,2790.88,23,2968.21,2969.73,5.25,A,right,0.72,10,0.62,14,0.7,9,0.6,13,-999,32.0,3,1,2,-3.0,0.0,-3.0,-1.0,0.0,0.0,10
12,3,2790.88,24,2975.31,2976.83,2.74,A,mid,0.75,10,0.65,15,0.73,9,0.63,14,-999,31.0,2,1,3,0.0,0.0,0.0,0.0,0.0,0.0,110
12,3,2790.88,25,2979.91,2981.43,3.54,B,right,0.72,9,0.65,14,0.7,8,0.63,13,-999,31.0,1,3,2,-3.0,-1.0,0.0,-1.0,3.0,-1.0,0
12,3,2790.88,26,2985.29,2986.81,2.92,C,left,0.19,52,0.59,16,0.81,12,-999.0,-999,-999,99.0,2,3,1,0.0,0.0,0.0,0.0,0.0,0.0,11
12,3,2790.88,27,2990.07,2991.59,5.15,B,mid,0.75,9,0.62,15,0.73,8,0.6,14,-999,32.0,1,2,3,0.0,-1.0,-3.0,0.0,-3.0,0.0,11
12,3,2790.88,28,2997.07,2998.59,9.02,A,right,0.72,10,0.65,15,0.82,7,0.52,26,-999,1.0,3,1,2,-3.0,0.0,0.0,0.0,-3.0,-1.0,110
12,3,2790.88,29,3007.95,3009.47,4.63,B,left,0.72,9,0.68,14,0.7,8,0.66,13,-999,31.0,3,1,2,-3.0,-1.0,3.0,-1.0,-3.0,0.0,10
12,3,2790.88,30,3014.43,3015.95,3.89,A,left,0.72,10,0.62,15,0.7,9,0.6,14,-999,31.0,1,3,2,-3.0,0.0,-3.0,0.0,0.0,-1.0,1
12,3,2790.88,31,3020.18,3021.7,2.82,B,left,0.72,9,0.65,15,0.7,8,0.63,14,-999,31.0,2,1,3,-3.0,-1.0,0.0,0.0,3.0,-1.0,11
12,3,2790.88,32,3024.86,3026.38,17.64,A,left,0.78,10,0.65,14,0.82,7,0.52,26,-999,2.0,1,3,2,3.0,0.0,0.0,-1.0,-3.0,-1.0,110
12,3,2790.88,33,3044.36,3045.87,2.66,C,right,0.32,31,0.48,20,0.85,11,-999.0,-999,-999,99.0,2,1,3,0.0,0.0,0.0,0.0,0.0,0.0,100
12,3,2790.88,34,3048.87,3050.39,2.41,A,mid,0.78,10,0.68,15,0.76,9,0.66,14,-999,31.0,2,3,1,3.0,0.0,3.0,0.0,0.0,0.0,10
12,3,2790.88,35,3053.14,3054.65,3.92,B,mid,0.75,9,0.65,14,0.73,8,0.63,13,-999,32.0,3,2,1,0.0,-1.0,0.0,-1.0,3.0,0.0,1
12,3,2790.88,36,3058.9,3060.42,4.26,A,mid,0.72,10,0.65,15,0.7,9,0.63,14,-999,31.0,2,1,3,-3.0,0.0,0.0,0.0,-3.0,-1.0,10
12,3,2790.88,37,3065.02,3066.53,2.93,B,left,0.78,9,0.62,15,0.76,8,0.6,14,-999,31.0,3,1,2,3.0,-1.0,-3.0,0.0,0.0,0.0,100
12,3,2790.88,38,3088.13,3089.64,3.41,B,mid,0.72,9,0.65,15,0.7,8,0.63,14,-999,31.0,1,2,3,-3.0,-1.0,0.0,0.0,3.0,-1.0,100
12,3,2790.88,39,3093.39,3094.91,2.29,A,mid,0.72,10,0.68,14,0.7,9,0.66,13,-999,32.0,2,3,1,-3.0,0.0,3.0,-1.0,0.0,-1.0,0
12,3,2790.88,40,3097.54,3099.06,3.11,B,mid,0.75,9,0.65,15,0.73,8,0.63,14,-999,31.0,3,2,1,0.0,-1.0,0.0,0.0,3.0,-1.0,11
12,3,2790.88,41,3102.5,3104.02,1.6,C,mid,0.24,41,0.37,27,0.76,13,-999.0,-999,-999,99.0,1,3,2,0.0,0.0,0.0,0.0,0.0,0.0,0
12,3,2790.88,42,3105.95,3107.47,4.07,B,left,0.72,9,0.68,15,0.88,8,0.58,27,-999,2.0,3,1,2,-3.0,-1.0,3.0,0.0,3.0,0.0,110
12,3,2790.88,43,3111.87,3113.38,5.56,A,left,0.75,10,0.65,14,0.73,9,0.63,13,-999,31.0,1,3,2,0.0,0.0,0.0,-1.0,-3.0,-1.0,100
12,3,2790.88,44,3119.28,3120.8,3.74,B,right,0.75,9,0.68,14,0.85,7,0.55,26,-999,2.0,1,3,2,0.0,-1.0,3.0,-1.0,0.0,-1.0,111
12,3,2790.88,45,3124.88,3126.4,2.97,C,left,0.19,52,0.56,17,0.8,12,-999.0,-999,-999,99.0,2,3,1,0.0,0.0,0.0,0.0,0.0,0.0,111
12,3,2790.88,46,3129.71,3131.23,3.96,B,mid,0.75,9,0.68,14,0.73,8,0.66,13,-999,32.0,3,2,1,0.0,-1.0,3.0,-1.0,0.0,0.0,101
12,3,2790.88,47,3135.53,3137.04,3.94,A,right,0.75,10,0.65,15,0.82,7,0.52,26,-999,1.0,3,2,1,0.0,0.0,0.0,0.0,-3.0,-1.0,1
12,3,2790.88,48,3141.32,3142.84,3.3,B,left,0.78,9,0.68,15,0.88,8,0.58,27,-999,1.0,3,1,2,3.0,-1.0,3.0,0.0,3.0,0.0,100
12,3,2790.88,49,3146.49,3148.01,7.61,A,mid,0.75,10,0.65,14,0.85,7,0.55,26,-999,2.0,2,1,3,0.0,0.0,0.0,-1.0,0.0,-1.0,0
12,3,2790.88,50,3155.95,3157.47,13.54,B,right,0.75,10,0.62,15,0.88,7,0.58,26,-999,1.0,2,3,1,0.0,0.0,-3.0,0.0,3.0,-1.0,111
12,3,2790.88,51,3171.35,3172.86,8.45,C,left,0.16,62,0.46,21,0.87,11,-999.0,-999,-999,99.0,3,2,1,0.0,0.0,0.0,0.0,0.0,0.0,111
12,3,2790.88,52,3181.66,3183.18,2.05,A,mid,0.72,10,0.65,15,0.82,7,0.52,26,-999,2.0,2,1,3,-3.0,0.0,0.0,0.0,-3.0,-1.0,101
12,3,2790.88,53,3185.58,3187.09,2.58,A,mid,0.78,10,0.62,14,0.85,8,0.55,27,-999,2.0,2,3,1,3.0,0.0,-3.0,-1.0,0.0,0.0,101
12,3,2790.88,54,3190.01,3191.53,4.53,A,left,0.78,10,0.65,14,0.82,7,0.52,26,-999,1.0,1,2,3,3.0,0.0,0.0,-1.0,-3.0,-1.0,111
12,3,2790.88,55,3196.39,3197.91,2.77,B,left,0.72,9,0.65,15,0.85,8,0.55,27,-999,2.0,3,1,2,-3.0,-1.0,0.0,0.0,0.0,0.0,100
12,3,2790.88,56,3201.02,3202.54,5.46,A,left,0.75,10,0.65,15,0.85,8,0.55,27,-999,1.0,1,3,2,0.0,0.0,0.0,0.0,0.0,0.0,101
12,3,2790.88,57,3208.34,3209.85,4.94,B,right,0.72,9,0.65,15,0.88,7,0.58,26,-999,2.0,1,3,2,-3.0,-1.0,0.0,0.0,3.0,-1.0,100
12,3,2790.88,58,3215.13,3216.65,1.98,C,left,0.28,35,0.67,14,0.78,12,-999.0,-999,-999,99.0,2,3,1,0.0,0.0,0.0,0.0,0.0,0.0,101
12,3,2790.88,59,3218.97,3220.48,7.09,A,left,0.72,10,0.68,14,0.88,8,0.58,27,-999,2.0,1,3,2,-3.0,0.0,3.0,-1.0,3.0,0.0,111
12,3,2790.88,60,3227.91,3229.43,3.5,A,mid,0.72,10,0.62,14,0.85,8,0.55,27,-999,2.0,2,3,1,-3.0,0.0,-3.0,-1.0,0.0,0.0,10
12,3,2790.88,61,3233.26,3234.78,6.28,B,mid,0.72,9,0.68,14,0.85,8,0.55,27,-999,2.0,3,2,1,-3.0,-1.0,3.0,-1.0,0.0,0.0,0
12,3,2790.88,62,3241.39,3242.91,5.33,B,right,0.72,10,0.65,14,0.7,9,0.63,13,-999,32.0,2,3,1,-3.0,0.0,0.0,-1.0,3.0,0.0,111
12,3,2790.88,63,3248.57,3250.09,2.16,B,right,0.75,9,0.68,15,0.88,8,0.58,27,-999,1.0,2,3,1,0.0,-1.0,3.0,0.0,3.0,0.0,10
12,3,2790.88,64,3252.59,3254.1,6.4,B,right,0.78,9,0.62,15,0.85,7,0.55,26,-999,1.0,1,3,2,3.0,-1.0,-3.0,0.0,0.0,-1.0,11
12,3,2790.88,65,3260.84,3262.35,3.1,A,left,0.78,10,0.62,15,0.76,9,0.6,14,-999,32.0,1,3,2,3.0,0.0,-3.0,0.0,3.0,0.0,0
12,3,2790.88,66,3265.78,3267.3,5.8,B,left,0.75,10,0.65,15,0.73,9,0.63,14,-999,31.0,2,1,3,0.0,0.0,0.0,0.0,0.0,-1.0,110
12,3,2790.88,67,3273.45,3274.96,11.01,B,left,0.72,10,0.68,15,0.82,8,0.52,27,-999,2.0,2,1,3,-3.0,0.0,3.0,0.0,-3.0,0.0,111
12,3,2790.88,68,3286.31,3287.83,3.12,A,mid,0.72,10,0.68,15,0.82,7,0.52,26,-999,1.0,2,1,3,-3.0,0.0,3.0,0.0,-3.0,-1.0,111
12,3,2790.88,69,3291.29,3292.81,5.48,B,left,0.75,9,0.68,14,0.73,8,0.66,13,-999,31.0,3,1,2,0.0,-1.0,3.0,-1.0,0.0,-1.0,0
12,3,2790.88,70,3298.62,3300.14,7.25,C,left,0.31,32,0.38,26,0.85,11,-999.0,-999,-999,99.0,2,3,1,0.0,0.0,0.0,0.0,0.0,0.0,10
12,3,2790.88,71,3307.72,3309.24,7.32,B,mid,0.75,9,0.62,15,0.88,8,0.58,27,-999,1.0,3,2,1,0.0,-1.0,-3.0,0.0,3.0,0.0,11
12,3,2790.88,72,3316.9,3318.42,3.52,A,left,0.72,10,0.62,14,0.85,8,0.55,27,-999,2.0,1,2,3,-3.0,0.0,-3.0,-1.0,0.0,0.0,1
12,3,2790.88,73,3322.28,3323.8,3.38,C,right,0.29,34,0.42,23,0.72,13,-999.0,-999,-999,99.0,2,1,3,0.0,0.0,0.0,0.0,0.0,0.0,0
12,3,2790.88,74,3327.51,3329.03,1.68,A,right,0.75,9,0.62,15,0.88,7,0.58,26,-999,2.0,3,2,1,0.0,-1.0,-3.0,0.0,3.0,-1.0,11
12,3,2790.88,75,3331.05,3332.56,4.21,A,mid,0.72,10,0.68,15,0.82,7,0.52,26,-999,1.0,2,1,3,-3.0,0.0,3.0,0.0,-3.0,-1.0,1
