subject,block,block_onset,trial,fixation_cross_onset,trial_onset,rt,choice,key,pA,mA,pB,mB,pCA,mCA,pCB,mCB,missing,condition,position_A,position_B,position_C,noise_Ap,noise_Am,noise_Bp,noise_Bm,noise_Cp,noise_Cm,attribute_positions
34,Practice,874.7,P1,874.72,876.24,9.45,C,mid,0.78,7,0.62,17,0.85,3,0.55,24,-999,2.0,3,1,2,3.0,-2.0,-3.0,2.0,0.0,-1.0,1
34,Practice,874.7,P2,886.03,887.55,10.12,C,right,0.72,7,0.62,16,0.88,5,0.58,26,-999,2.0,1,2,3,-3.0,-2.0,-3.0,1.0,3.0,1.0,10
34,Practice,874.7,P3,898.01,899.53,22.35,B,right,0.75,11,0.68,13,0.85,4,0.55,25,-999,1.0,2,3,1,0.0,2.0,3.0,-2.0,0.0,0.0,110
34,Practice,874.7,P4,922.22,923.74,6.84,B,left,0.75,9,0.65,15,0.88,5,0.58,26,-999,1.0,3,1,2,0.0,0.0,0.0,0.0,3.0,1.0,100
34,Practice,874.7,P5,930.92,932.44,6.72,A,left,0.72,11,0.62,13,0.85,6,0.55,27,-999,1.0,1,3,2,-3.0,2.0,-3.0,-2.0,0.0,2.0,101
34,Practice,874.7,P6,939.5,941.02,6.46,C,left,0.78,7,0.62,13,0.82,6,0.52,27,-999,2.0,2,3,1,3.0,-2.0,-3.0,-2.0,-3.0,2.0,110
34,Practice,874.7,P7,947.81,949.33,7.18,C,right,0.75,7,0.65,17,0.85,5,0.55,26,-999,2.0,2,1,3,0.0,-2.0,0.0,2.0,0.0,1.0,111
34,Practice,874.7,P8,956.86,958.38,14.39,B,left,0.72,8,0.68,15,0.82,6,0.52,27,-999,2.0,3,1,2,-3.0,-1.0,3.0,0.0,-3.0,2.0,110
34,Practice,874.7,P9,973.12,974.64,9.92,B,left,0.78,8,0.62,16,0.88,5,0.58,26,-999,1.0,3,1,2,3.0,-1.0,-3.0,1.0,3.0,1.0,1
34,Practice,874.7,P10,984.9,986.42,12.69,C,right,0.75,10,0.65,16,0.82,2,0.52,23,-999,2.0,1,2,3,0.0,1.0,0.0,1.0,-3.0,-2.0,101
34,Practice,874.7,P11,999.45,1000.96,8.97,C,left,0.72,8,0.65,15,0.85,5,0.55,26,-999,2.0,2,3,1,-3.0,-1.0,0.0,0.0,0.0,1.0,0
34,Practice,874.7,P12,1010.28,1011.79,6.24,B,right,0.72,8,0.68,15,0.85,5,0.55,26,-999,1.0,2,3,1,-3.0,-1.0,3.0,0.0,0.0,1.0,101
34,Practice,874.7,P13,1018.38,1019.89,4.84,A,mid,0.78,11,0.68,16,0.88,5,0.58,26,-999,1.0,2,1,3,3.0,2.0,3.0,1.0,3.0,1.0,111
34,Practice,874.7,P14,1025.07,1026.59,8.77,C,left,0.72,11,0.62,17,0.82,3,0.52,24,-999,2.0,3,2,1,-3.0,2.0,-3.0,2.0,-3.0,-1.0,0
34,Practice,874.7,P15,1035.7,1037.22,11.61,C,left,0.78,7,0.68,14,0.88,5,0.58,26,-999,2.0,2,3,1,3.0,-2.0,3.0,-1.0,3.0,1.0,10
34,Practice,874.7,P16,1049.18,1050.7,2.76,B,left,0.78,7,0.65,13,0.82,2,0.52,23,-999,2.0,2,1,3,3.0,-2.0,0.0,-2.0,-3.0,-2.0,1
34,Practice,874.7,P17,1053.8,1055.31,9.86,C,left,0.72,10,0.65,13,0.82,5,0.52,26,-999,2.0,3,2,1,-3.0,1.0,0.0,-2.0,-3.0,1.0,110
34,Practice,874.7,P18,1065.54,1067.06,3.46,C,mid,0.78,7,0.68,13,0.88,2,0.58,23,-999,2.0,3,1,2,3.0,-2.0,3.0,-2.0,3.0,-2.0,10
34,Practice,874.7,P19,1070.86,1072.37,3.6,A,right,0.78,11,0.62,15,0.85,4,0.55,25,-999,1.0,3,1,2,3.0,2.0,-3.0,0.0,0.0,0.0,110
34,Practice,874.7,P20,1076.32,1077.84,2.97,B,right,0.72,7,0.65,14,0.88,4,0.58,25,-999,1.0,1,3,2,-3.0,-2.0,0.0,-1.0,3.0,0.0,11
34,Practice,874.7,P21,1081.16,1082.67,4.15,B,left,0.78,9,0.65,16,0.85,2,0.55,23,-999,1.0,3,1,2,3.0,0.0,0.0,1.0,0.0,-2.0,0
34,Practice,874.7,P22,1087.17,1088.69,2.52,B,right,0.72,9,0.62,15,0.85,2,0.55,23,-999,1.0,1,3,2,-3.0,0.0,-3.0,0.0,0.0,-2.0,10
34,Practice,874.7,P23,1091.55,1093.07,3.97,B,left,0.72,7,0.65,13,0.88,3,0.58,24,-999,1.0,3,1,2,-3.0,-2.0,0.0,-2.0,3.0,-1.0,100
34,Practice,874.7,P24,1097.38,1098.9,6.08,C,right,0.78,7,0.65,13,0.82,5,0.52,26,-999,2.0,2,1,3,3.0,-2.0,0.0,-2.0,-3.0,1.0,10
34,Practice,874.7,P25,1105.31,1106.83,6.63,A,mid,0.78,10,0.68,13,0.85,4,0.55,25,-999,1.0,2,3,1,3.0,1.0,3.0,-2.0,0.0,0.0,111
34,Estimation1,1312.8,E1,1312.87,1314.38,5.44,A,mid,0.75,11,0.65,15,0.85,-999,0.55,20,3,,2,1,3,,,,,,,11
34,Estimation1,1312.8,E2,1320.16,1321.68,7.56,C,mid,0.75,8,0.65,15,0.85,-999,0.55,20,1,2.0,1,3,2,,,,,,,101
34,Estimation1,1312.8,E3,1329.59,1331.11,3.68,B,left,0.75,8,0.65,15,0.85,-999,0.55,18,3,,3,1,2,,,,,,,100
34,Estimation1,1312.8,E4,1335.14,1336.66,4.81,B,right,0.75,10,0.65,15,0.85,-999,0.55,18,1,2.0,2,3,1,,,,,,,101
34,Estimation1,1312.8,E5,1341.82,1343.34,9.82,A,left,0.75,10,0.65,15,0.85,-999,0.55,19,3,,1,2,3,,,,,,,1
34,Estimation1,1312.8,E6,1353.5,1355.02,3.52,B,left,0.75,9,0.65,15,0.85,-999,0.55,19,1,2.0,2,1,3,,,,,,,101
34,Estimation1,1312.8,E7,1358.88,1360.4,4.99,B,mid,0.75,9,0.65,15,0.85,-999,0.55,20,3,,1,2,3,,,,,,,100
34,Estimation1,1312.8,E8,1365.73,1367.25,6.05,B,right,0.75,10,0.65,15,0.85,-999,0.55,20,1,2.0,2,3,1,,,,,,,100
34,Estimation1,1312.8,E9,1373.65,1375.16,9.22,A,right,0.75,10,0.65,15,0.85,-999,0.55,20,3,,3,2,1,,,,,,,100
34,Estimation1,1312.8,E10,1384.73,1386.24,7.71,C,mid,0.75,10,0.65,15,0.85,5,0.55,20,1,2.0,1,3,2,,,,,,,0
34,Estimation1,1312.8,E11,1394.29,1395.81,6.37,A,left,0.75,10,0.65,15,0.85,5,0.55,20,2,1.0,1,2,3,,,,,,,101
34,Estimation1,1312.8,E12,1402.52,1404.04,9.51,C,right,0.75,10,0.65,15,0.85,7,0.55,20,1,2.0,2,1,3,,,,,,,110
34,Estimation1,1312.8,E13,1413.9,1415.42,5.41,A,mid,0.75,10,0.65,15,0.85,7,0.55,20,2,1.0,2,1,3,,,,,,,11
34,Estimation1,1312.8,E14,1421.18,1422.7,6.11,C,right,0.75,10,0.65,15,0.85,8,0.55,20,1,2.0,1,2,3,,,,,,,100
34,Estimation1,1312.8,E15,1429.15,1430.66,4.13,A,mid,0.75,10,0.65,15,0.85,8,0.55,20,2,1.0,2,1,3,,,,,,,110
34,1,1445.91,1,1445.99,1447.51,16.99,A,mid,0.78,10,0.62,15,0.76,9,0.6,14,-999,32.0,2,1,3,3.0,0.0,-3.0,0.0,3.0,0.0,111
34,1,1445.91,2,1464.83,1466.35,16.1,A,left,0.78,10,0.65,14,0.82,7,0.52,19,-999,1.0,1,3,2,3.0,0.0,0.0,-1.0,-3.0,-1.0,110
34,1,1445.91,3,1482.8,1484.31,8.44,A,left,0.78,10,0.68,15,0.76,9,0.66,14,-999,31.0,1,3,2,3.0,0.0,3.0,0.0,0.0,0.0,111
34,1,1445.91,4,1493.09,1494.61,10.1,B,mid,0.72,9,0.65,15,0.88,7,0.58,19,-999,2.0,3,2,1,-3.0,-1.0,0.0,0.0,3.0,-1.0,111
34,1,1445.91,5,1505.05,1506.57,12.34,B,right,0.78,10,0.65,15,0.76,9,0.63,14,-999,32.0,1,3,2,3.0,0.0,0.0,0.0,0.0,0.0,101
34,1,1445.91,6,1519.25,1520.77,5.98,B,mid,0.78,9,0.62,15,0.76,8,0.6,14,-999,32.0,1,2,3,3.0,-1.0,-3.0,0.0,-3.0,-1.0,101
34,1,1445.91,7,1527.1,1528.61,5.1,B,mid,0.72,9,0.62,15,0.7,8,0.6,14,-999,32.0,3,2,1,-3.0,-1.0,-3.0,0.0,-3.0,-1.0,1
34,1,1445.91,8,1534.05,1535.56,9.06,B,right,0.78,9,0.68,15,0.85,7,0.55,19,-999,1.0,1,3,2,3.0,-1.0,3.0,0.0,0.0,-1.0,100
34,1,1445.91,9,1544.96,1546.48,12.84,A,mid,0.31,32,0.38,26,0.85,11,-999.0,-999,-999,99.0,2,3,1,0.0,0.0,0.0,0.0,0.0,0.0,101
34,1,1445.91,10,1559.65,1561.17,9.84,B,mid,0.75,9,0.68,14,0.85,7,0.55,19,-999,2.0,3,2,1,0.0,-1.0,3.0,-1.0,0.0,-1.0,111
34,1,1445.91,11,1571.35,1572.87,12.81,C,mid,0.72,9,0.62,14,0.88,8,0.58,20,-999,2.0,1,3,2,-3.0,-1.0,-3.0,-1.0,3.0,0.0,101
34,1,1445.91,12,1586.01,1587.53,10.42,C,mid,0.72,9,0.68,14,0.85,8,0.55,20,-999,2.0,3,1,2,-3.0,-1.0,3.0,-1.0,0.0,0.0,0
34,1,1445.91,13,1598.29,1599.81,8.29,B,left,0.32,31,0.48,20,0.85,11,-999.0,-999,-999,99.0,3,1,2,0.0,0.0,0.0,0.0,0.0,0.0,0
34,1,1445.91,14,1608.44,1609.96,11.91,B,left,0.75,9,0.65,14,0.73,8,0.63,13,-999,32.0,3,1,2,0.0,-1.0,0.0,-1.0,3.0,0.0,111
34,1,1445.91,15,1622.2,1623.72,8.75,B,left,0.75,9,0.68,14,0.73,8,0.66,13,-999,32.0,3,1,2,0.0,-1.0,3.0,-1.0,0.0,0.0,10
34,1,1445.91,16,1632.81,1634.33,5.35,B,mid,0.78,9,0.62,15,0.76,8,0.6,14,-999,31.0,3,2,1,3.0,-1.0,-3.0,0.0,0.0,0.0,110
34,1,1445.91,17,1640.01,1641.53,6.49,B,left,0.75,10,0.65,15,0.85,8,0.55,20,-999,1.0,2,1,3,0.0,0.0,0.0,0.0,0.0,0.0,0
34,1,1445.91,18,1648.36,1649.88,5.03,B,left,0.72,10,0.68,15,0.82,7,0.52,19,-999,1.0,2,1,3,-3.0,0.0,3.0,0.0,-3.0,-1.0,11
34,1,1445.91,19,1655.24,1656.76,24.11,B,left,0.72,10,0.65,14,0.7,9,0.63,13,-999,32.0,2,1,3,-3.0,0.0,0.0,-1.0,3.0,0.0,101
34,1,1445.91,20,1681.22,1682.73,4.46,C,right,0.72,10,0.68,15,0.82,8,0.52,20,-999,2.0,2,1,3,-3.0,0.0,3.0,0.0,-3.0,0.0,1
34,1,1445.91,21,1687.53,1689.05,8.89,A,mid,0.75,10,0.62,15,0.88,7,0.58,19,-999,1.0,2,3,1,0.0,0.0,-3.0,0.0,3.0,-1.0,11
34,1,1445.91,22,1698.28,1699.79,6.34,B,mid,0.72,10,0.65,15,0.7,9,0.63,14,-999,31.0,1,2,3,-3.0,0.0,0.0,0.0,-3.0,-1.0,100
34,1,1445.91,23,1706.47,1707.99,8.79,B,right,0.72,10,0.65,15,0.82,7,0.52,19,-999,2.0,1,3,2,-3.0,0.0,0.0,0.0,-3.0,-1.0,11
34,1,1445.91,24,1717.12,1718.64,3.98,C,right,0.75,10,0.62,14,0.88,8,0.58,20,-999,2.0,1,2,3,0.0,0.0,-3.0,-1.0,3.0,0.0,101
34,1,1445.91,25,1722.95,1724.47,4.13,C,right,0.75,10,0.65,14,0.85,7,0.55,19,-999,2.0,1,2,3,0.0,0.0,0.0,-1.0,0.0,-1.0,111
34,1,1445.91,26,1728.93,1730.45,8.8,B,left,0.75,10,0.65,15,0.82,7,0.52,19,-999,1.0,2,1,3,0.0,0.0,0.0,0.0,-3.0,-1.0,101
34,1,1445.91,27,1739.6,1741.11,15.8,B,right,0.78,9,0.62,14,0.76,8,0.6,13,-999,32.0,2,3,1,3.0,-1.0,-3.0,-1.0,0.0,-1.0,100
34,1,1445.91,28,1757.26,1758.77,2.49,B,left,0.72,9,0.65,14,0.7,8,0.63,13,-999,31.0,2,1,3,-3.0,-1.0,0.0,-1.0,3.0,-1.0,0
34,1,1445.91,29,1761.61,1763.12,7.77,A,mid,0.72,10,0.68,15,0.82,7,0.52,19,-999,1.0,2,3,1,-3.0,0.0,3.0,0.0,-3.0,-1.0,110
34,1,1445.91,30,1771.24,1772.75,3.38,B,mid,0.75,9,0.68,15,0.88,8,0.58,20,-999,1.0,1,2,3,0.0,-1.0,3.0,0.0,3.0,0.0,10
34,1,1445.91,31,1776.47,1777.99,5.24,B,right,0.72,10,0.62,15,0.7,9,0.6,14,-999,32.0,1,3,2,-3.0,0.0,-3.0,0.0,3.0,-1.0,100
34,1,1445.91,32,1783.57,1785.08,6.39,B,left,0.75,9,0.68,14,0.73,8,0.66,13,-999,31.0,3,1,2,0.0,-1.0,3.0,-1.0,0.0,-1.0,110
34,1,1445.91,33,1791.81,1793.33,10.87,A,mid,0.75,10,0.65,14,0.73,9,0.63,13,-999,31.0,2,3,1,0.0,0.0,0.0,-1.0,0.0,0.0,0
34,1,1445.91,34,1804.54,1806.06,4.02,B,left,0.78,10,0.65,15,0.76,9,0.63,14,-999,32.0,2,1,3,3.0,0.0,0.0,0.0,-3.0,-1.0,111
34,1,1445.91,35,1810.43,1811.94,11.73,C,right,0.19,52,0.59,16,0.81,12,-999.0,-999,-999,99.0,1,2,3,0.0,0.0,0.0,0.0,0.0,0.0,100
34,1,1445.91,36,1824.02,1825.54,6.61,B,mid,0.78,9,0.68,15,0.88,8,0.58,20,-999,1.0,1,2,3,3.0,-1.0,3.0,0.0,3.0,0.0,110
34,1,1445.91,37,1832.48,1834.0,10.28,C,right,0.28,35,0.67,14,0.78,12,-999.0,-999,-999,99.0,1,2,3,0.0,0.0,0.0,0.0,0.0,0.0,11
34,1,1445.91,38,1871.94,1873.46,6.95,A,right,0.78,10,0.65,14,0.82,8,0.52,20,-999,1.0,3,1,2,3.0,0.0,0.0,-1.0,-3.0,0.0,110
34,1,1445.91,39,1880.74,1882.25,8.81,B,left,0.72,10,0.62,15,0.7,9,0.6,14,-999,32.0,2,1,3,-3.0,0.0,-3.0,0.0,0.0,0.0,110
34,1,1445.91,40,1891.4,1892.92,2.7,B,right,0.75,9,0.62,15,0.88,8,0.58,20,-999,1.0,1,3,2,0.0,-1.0,-3.0,0.0,3.0,0.0,1
34,1,1445.91,41,1895.95,1897.46,4.48,B,mid,0.75,9,0.65,15,0.73,8,0.63,14,-999,31.0,1,2,3,0.0,-1.0,0.0,0.0,3.0,-1.0,110
34,1,1445.91,42,1902.3,1903.81,10.25,A,right,0.75,10,0.65,15,0.73,9,0.63,14,-999,31.0,3,1,2,0.0,0.0,0.0,0.0,0.0,0.0,10
34,1,1445.91,43,1914.41,1915.93,21.3,A,right,0.78,10,0.68,15,0.82,8,0.52,20,-999,1.0,3,2,1,3.0,0.0,3.0,0.0,-3.0,0.0,1
34,1,1445.91,44,1937.57,1939.08,18.36,A,mid,0.24,41,0.37,27,0.76,13,-999.0,-999,-999,99.0,2,1,3,0.0,0.0,0.0,0.0,0.0,0.0,10
34,1,1445.91,45,1957.78,1959.29,7.98,B,right,0.72,9,0.65,15,0.85,8,0.55,20,-999,2.0,2,3,1,-3.0,-1.0,0.0,0.0,0.0,0.0,11
34,1,1445.91,46,1967.61,1969.13,9.06,B,mid,0.16,62,0.46,21,0.87,11,-999.0,-999,-999,99.0,1,2,3,0.0,0.0,0.0,0.0,0.0,0.0,10
34,1,1445.91,47,1978.52,1980.04,5.66,C,right,0.72,10,0.62,14,0.85,8,0.55,20,-999,2.0,1,2,3,-3.0,0.0,-3.0,-1.0,0.0,0.0,11
34,1,1445.91,48,1986.04,1987.55,3.1,C,left,0.78,10,0.62,14,0.85,8,0.55,20,-999,2.0,3,2,1,3.0,0.0,-3.0,-1.0,0.0,0.0,0
34,1,1445.91,49,1990.98,1992.5,6.86,B,left,0.75,9,0.62,15,0.73,8,0.6,14,-999,32.0,2,1,3,0.0,-1.0,-3.0,0.0,-3.0,0.0,1
34,1,1445.91,50,1999.7,2001.22,6.39,A,mid,0.75,10,0.65,15,0.73,9,0.63,14,-999,31.0,2,1,3,0.0,0.0,0.0,0.0,0.0,-1.0,10
34,1,1445.91,51,2007.95,2009.46,11.08,B,mid,0.78,9,0.68,14,0.76,8,0.66,13,-999,32.0,1,2,3,3.0,-1.0,3.0,-1.0,3.0,-1.0,0
34,1,1445.91,52,2020.89,2022.41,11.59,A,mid,0.78,10,0.62,14,0.76,9,0.6,13,-999,31.0,2,1,3,3.0,0.0,-3.0,-1.0,-3.0,0.0,100
34,1,1445.91,53,2034.34,2035.85,10.32,B,mid,0.78,10,0.65,14,0.82,7,0.52,19,-999,2.0,1,2,3,3.0,0.0,0.0,-1.0,-3.0,-1.0,0
34,1,1445.91,54,2046.52,2048.03,11.12,C,left,0.19,52,0.56,17,0.8,12,-999.0,-999,-999,99.0,2,3,1,0.0,0.0,0.0,0.0,0.0,0.0,10
34,1,1445.91,55,2059.5,2061.01,7.53,B,mid,0.78,9,0.62,15,0.85,7,0.55,19,-999,1.0,1,2,3,3.0,-1.0,-3.0,0.0,0.0,-1.0,101
34,1,1445.91,56,2068.89,2070.41,4.53,B,right,0.72,9,0.65,15,0.7,8,0.63,14,-999,31.0,1,3,2,-3.0,-1.0,0.0,0.0,3.0,-1.0,111
34,1,1445.91,57,2075.28,2076.79,12.24,B,left,0.72,9,0.65,15,0.7,8,0.63,14,-999,31.0,2,1,3,-3.0,-1.0,0.0,0.0,3.0,-1.0,100
34,1,1445.91,58,2089.37,2090.89,6.03,C,mid,0.72,10,0.68,14,0.88,8,0.58,20,-999,2.0,3,1,2,-3.0,0.0,3.0,-1.0,3.0,0.0,110
34,1,1445.91,59,2097.25,2098.77,11.78,B,mid,0.27,37,0.61,16,0.89,11,-999.0,-999,-999,99.0,3,2,1,0.0,0.0,0.0,0.0,0.0,0.0,1
34,1,1445.91,60,2110.88,2112.4,9.26,B,left,0.78,10,0.68,15,0.88,7,0.58,19,-999,1.0,3,1,2,3.0,0.0,3.0,0.0,3.0,-1.0,111
34,1,1445.91,61,2121.99,2123.51,11.49,B,mid,0.72,10,0.68,14,0.7,9,0.66,13,-999,32.0,3,2,1,-3.0,0.0,3.0,-1.0,0.0,-1.0,0
34,1,1445.91,62,2135.34,2136.86,10.27,B,mid,0.27,37,0.47,21,0.86,11,-999.0,-999,-999,99.0,1,2,3,0.0,0.0,0.0,0.0,0.0,0.0,0
34,1,1445.91,63,2147.47,2148.98,30.91,C,left,0.29,34,0.42,23,0.72,13,-999.0,-999,-999,99.0,2,3,1,0.0,0.0,0.0,0.0,0.0,0.0,110
34,1,1445.91,64,2180.23,2181.74,4.24,B,left,0.72,9,0.68,14,0.7,8,0.66,13,-999,31.0,2,1,3,-3.0,-1.0,3.0,-1.0,-3.0,0.0,101
34,1,1445.91,65,2186.32,2187.84,4.63,B,left,0.72,9,0.68,15,0.88,8,0.58,20,-999,2.0,2,1,3,-3.0,-1.0,3.0,0.0,3.0,0.0,111
34,1,1445.91,66,2192.8,2194.32,6.31,B,right,0.72,10,0.62,14,0.7,9,0.6,13,-999,32.0,1,3,2,-3.0,0.0,-3.0,-1.0,0.0,0.0,10
34,1,1445.91,67,2200.97,2202.49,3.97,A,left,0.72,10,0.62,15,0.7,9,0.6,14,-999,31.0,1,2,3,-3.0,0.0,-3.0,0.0,0.0,-1.0,111
34,1,1445.91,68,2206.78,2208.3,15.09,A,right,0.75,10,0.65,14,0.73,9,0.63,13,-999,31.0,3,1,2,0.0,0.0,0.0,-1.0,-3.0,-1.0,111
34,1,1445.91,69,2223.73,2225.24,5.35,B,mid,0.78,9,0.68,15,0.76,8,0.66,14,-999,31.0,3,2,1,3.0,-1.0,3.0,0.0,0.0,0.0,100
34,1,1445.91,70,2230.94,2232.46,5.19,B,left,0.75,9,0.62,15,0.88,7,0.58,19,-999,2.0,3,1,2,0.0,-1.0,-3.0,0.0,3.0,-1.0,0
34,1,1445.91,71,2237.99,2239.51,6.67,B,right,0.78,10,0.62,14,0.85,7,0.55,19,-999,1.0,1,3,2,3.0,0.0,-3.0,-1.0,0.0,-1.0,110
34,1,1445.91,72,2246.52,2248.04,6.38,B,left,0.72,10,0.65,15,0.82,7,0.52,19,-999,1.0,3,1,2,-3.0,0.0,0.0,0.0,-3.0,-1.0,110
34,1,1445.91,73,2254.75,2256.27,8.65,C,right,0.32,31,0.6,16,0.78,12,-999.0,-999,-999,99.0,2,1,3,0.0,0.0,0.0,0.0,0.0,0.0,110
34,1,1445.91,74,2265.25,2266.76,7.48,B,mid,0.78,9,0.65,15,0.76,8,0.63,14,-999,32.0,3,2,1,3.0,-1.0,0.0,0.0,-3.0,-1.0,110
34,1,1445.91,75,2274.58,2276.09,11.82,C,left,0.72,10,0.62,14,0.85,8,0.55,20,-999,2.0,3,2,1,-3.0,0.0,-3.0,-1.0,0.0,0.0,100
34,Estimation2,2486.5,E1,2486.56,2488.08,16.97,B,left,0.75,11,0.65,15,0.85,-999,0.55,20,3,,2,1,3,,,,,,,110
34,Estimation2,2486.5,E2,2505.39,2506.91,3.7,B,mid,0.75,12,0.65,15,0.85,-999,0.55,20,1,2.0,1,2,3,,,,,,,0
34,Estimation2,2486.5,E3,2510.95,2512.47,4.44,A,right,0.75,12,0.65,15,0.85,-999,0.55,28,3,,3,1,2,,,,,,,1
34,Estimation2,2486.5,E4,2517.25,2518.77,4.35,B,right,0.75,12,0.65,15,0.85,6,0.55,28,1,2.0,1,3,2,,,,,,,1
34,Estimation2,2486.5,E5,2523.47,2524.98,2.94,A,left,0.75,12,0.65,15,0.85,6,0.55,32,2,1.0,1,3,2,,,,,,,0
34,Estimation2,2486.5,E6,2528.27,2529.78,10.55,C,right,0.75,12,0.65,15,0.85,8,0.55,32,1,2.0,1,2,3,,,,,,,0
34,Estimation2,2486.5,E7,2540.66,2542.18,4.67,A,right,0.75,12,0.65,15,0.85,8,0.55,30,2,1.0,3,1,2,,,,,,,101
34,Estimation2,2486.5,E8,2547.19,2548.71,6.89,C,mid,0.75,12,0.65,15,0.85,9,0.55,30,1,2.0,3,1,2,,,,,,,10
34,Estimation2,2486.5,E9,2555.94,2557.46,2.76,A,right,0.75,12,0.65,15,0.85,9,0.55,29,2,1.0,3,2,1,,,,,,,110
34,Estimation2,2486.5,E10,2560.56,2562.07,7.02,B,left,0.75,12,0.65,15,0.85,10,0.55,29,1,2.0,3,1,2,,,,,,,110
34,Estimation2,2486.5,E11,2569.44,2570.95,5.23,C,right,0.75,12,0.65,15,0.85,10,0.55,30,2,1.0,1,2,3,,,,,,,101
34,Estimation2,2486.5,E12,2576.52,2578.03,4.9,C,mid,0.75,12,0.65,15,0.85,10,0.55,30,1,2.0,3,1,2,,,,,,,110
34,2,2586.52,1,2586.6,2588.11,8.17,A,left,0.78,12,0.62,14,0.76,11,0.6,13,-999,31.0,1,2,3,3.0,0.0,-3.0,-1.0,-3.0,0.0,101
34,2,2586.52,2,2596.63,2598.14,12.62,C,mid,0.75,11,0.62,15,0.88,9,0.58,29,-999,2.0,1,3,2,0.0,-1.0,-3.0,0.0,3.0,-1.0,111
34,2,2586.52,3,2611.11,2612.62,34.63,C,right,0.78,12,0.62,14,0.85,10,0.55,30,-999,2.0,2,1,3,3.0,0.0,-3.0,-1.0,0.0,0.0,11
34,2,2586.52,4,2647.59,2649.11,7.56,B,left,0.27,37,0.47,21,0.86,11,-999.0,-999,-999,99.0,2,1,3,0.0,0.0,0.0,0.0,0.0,0.0,100
34,2,2586.52,5,2657.01,2658.52,4.92,B,mid,0.78,11,0.65,15,0.76,10,0.63,14,-999,32.0,3,2,1,3.0,-1.0,0.0,0.0,-3.0,-1.0,0
34,2,2586.52,6,2663.79,2665.31,10.64,A,mid,0.78,11,0.68,15,0.85,9,0.55,29,-999,1.0,2,3,1,3.0,-1.0,3.0,0.0,0.0,-1.0,111
34,2,2586.52,7,2676.29,2677.8,11.76,A,right,0.72,11,0.65,15,0.7,10,0.63,14,-999,31.0,3,2,1,-3.0,-1.0,0.0,0.0,3.0,-1.0,0
34,2,2586.52,8,2689.91,2691.43,7.86,A,mid,0.72,11,0.65,14,0.7,10,0.63,13,-999,31.0,2,1,3,-3.0,-1.0,0.0,-1.0,3.0,-1.0,1
34,2,2586.52,9,2699.63,2701.14,5.25,A,right,0.78,12,0.68,15,0.88,9,0.58,29,-999,1.0,3,2,1,3.0,0.0,3.0,0.0,3.0,-1.0,10
34,2,2586.52,10,2706.74,2708.26,9.22,A,right,0.78,11,0.62,15,0.76,10,0.6,14,-999,31.0,3,1,2,3.0,-1.0,-3.0,0.0,0.0,0.0,110
34,2,2586.52,11,2717.82,2719.34,5.45,C,mid,0.75,12,0.65,15,0.85,10,0.55,30,-999,1.0,3,1,2,0.0,0.0,0.0,0.0,0.0,0.0,0
34,2,2586.52,12,2725.14,2726.65,5.37,A,mid,0.78,12,0.65,14,0.82,9,0.52,29,-999,1.0,2,1,3,3.0,0.0,0.0,-1.0,-3.0,-1.0,110
34,2,2586.52,13,2732.37,2733.88,13.01,C,mid,0.72,11,0.65,15,0.85,10,0.55,30,-999,2.0,3,1,2,-3.0,-1.0,0.0,0.0,0.0,0.0,110
34,2,2586.52,14,2747.23,2748.75,9.54,A,left,0.72,11,0.65,15,0.7,10,0.63,14,-999,31.0,1,3,2,-3.0,-1.0,0.0,0.0,3.0,-1.0,0
34,2,2586.52,15,2758.63,2760.14,11.13,A,right,0.75,11,0.68,14,0.73,10,0.66,13,-999,31.0,3,2,1,0.0,-1.0,3.0,-1.0,0.0,-1.0,1
34,2,2586.52,16,2771.62,2773.14,18.73,A,mid,0.75,12,0.65,14,0.73,11,0.63,13,-999,31.0,2,3,1,0.0,0.0,0.0,-1.0,0.0,0.0,11
34,2,2586.52,17,2792.22,2793.73,8.72,A,left,0.78,11,0.68,15,0.76,10,0.66,14,-999,31.0,1,3,2,3.0,-1.0,3.0,0.0,0.0,0.0,10
34,2,2586.52,18,2802.8,2804.31,8.98,C,left,0.24,41,0.37,27,0.76,13,-999.0,-999,-999,99.0,3,2,1,0.0,0.0,0.0,0.0,0.0,0.0,10
34,2,2586.52,19,2813.64,2815.16,6.46,A,right,0.75,11,0.62,15,0.73,10,0.6,14,-999,32.0,3,1,2,0.0,-1.0,-3.0,0.0,-3.0,0.0,11
34,2,2586.52,20,2821.96,2823.47,9.01,A,mid,0.75,11,0.65,15,0.73,10,0.63,14,-999,31.0,2,3,1,0.0,-1.0,0.0,0.0,3.0,-1.0,101
34,2,2586.52,21,2832.82,2834.34,4.61,C,left,0.28,35,0.67,14,0.78,12,-999.0,-999,-999,99.0,3,2,1,0.0,0.0,0.0,0.0,0.0,0.0,10
34,2,2586.52,22,2839.28,2840.8,5.15,B,mid,0.72,12,0.62,15,0.7,11,0.6,14,-999,32.0,3,2,1,-3.0,0.0,-3.0,0.0,3.0,-1.0,111
34,2,2586.52,23,2846.3,2847.82,12.86,A,right,0.78,12,0.68,15,0.82,10,0.52,30,-999,1.0,3,1,2,3.0,0.0,3.0,0.0,-3.0,0.0,10
34,2,2586.52,24,2861.03,2862.54,12.63,A,mid,0.75,12,0.65,15,0.73,11,0.63,14,-999,31.0,2,3,1,0.0,0.0,0.0,0.0,0.0,0.0,100
34,2,2586.52,25,2875.52,2877.04,8.25,A,left,0.75,11,0.65,14,0.73,10,0.63,13,-999,32.0,1,2,3,0.0,-1.0,0.0,-1.0,3.0,0.0,11
34,2,2586.52,26,2885.64,2887.15,7.72,A,mid,0.72,12,0.62,15,0.7,11,0.6,14,-999,32.0,2,3,1,-3.0,0.0,-3.0,0.0,0.0,0.0,1
34,2,2586.52,27,2895.22,2896.73,4.25,A,left,0.75,11,0.68,14,0.73,10,0.66,13,-999,32.0,1,3,2,0.0,-1.0,3.0,-1.0,0.0,0.0,0
34,2,2586.52,28,2901.31,2902.83,14.66,C,mid,0.31,32,0.38,26,0.85,11,-999.0,-999,-999,99.0,3,1,2,0.0,0.0,0.0,0.0,0.0,0.0,100
34,2,2586.52,29,2917.83,2919.34,3.78,C,right,0.72,12,0.62,14,0.85,10,0.55,30,-999,2.0,1,2,3,-3.0,0.0,-3.0,-1.0,0.0,0.0,0
34,2,2586.52,30,2923.47,2924.99,6.37,C,right,0.72,11,0.68,15,0.88,10,0.58,30,-999,2.0,2,1,3,-3.0,-1.0,3.0,0.0,3.0,0.0,10
34,2,2586.52,31,2931.71,2933.22,3.03,A,left,0.78,11,0.62,15,0.85,9,0.55,29,-999,1.0,1,3,2,3.0,-1.0,-3.0,0.0,0.0,-1.0,111
34,2,2586.52,32,2936.59,2938.1,5.13,A,left,0.78,11,0.62,15,0.76,10,0.6,14,-999,32.0,1,2,3,3.0,-1.0,-3.0,0.0,-3.0,-1.0,10
34,2,2586.52,33,2943.58,2945.1,10.38,C,left,0.72,11,0.68,14,0.85,10,0.55,30,-999,2.0,3,2,1,-3.0,-1.0,3.0,-1.0,0.0,0.0,100
34,2,2586.52,34,2955.81,2957.33,7.71,A,left,0.72,12,0.68,14,0.7,11,0.66,13,-999,32.0,1,2,3,-3.0,0.0,3.0,-1.0,0.0,-1.0,101
34,2,2586.52,35,2965.38,2966.89,16.77,B,right,0.72,11,0.68,14,0.7,10,0.66,13,-999,31.0,1,3,2,-3.0,-1.0,3.0,-1.0,-3.0,0.0,11
34,2,2586.52,36,2984.01,2985.52,10.41,C,mid,0.27,37,0.61,16,0.89,11,-999.0,-999,-999,99.0,1,3,2,0.0,0.0,0.0,0.0,0.0,0.0,11
34,2,2586.52,37,2996.27,2997.78,9.33,B,left,0.72,11,0.65,15,0.88,9,0.58,29,-999,2.0,3,1,2,-3.0,-1.0,0.0,0.0,3.0,-1.0,111
34,2,2586.52,38,3030.44,3031.96,6.8,C,mid,0.29,34,0.42,23,0.72,13,-999.0,-999,-999,99.0,1,3,2,0.0,0.0,0.0,0.0,0.0,0.0,111
34,2,2586.52,39,3039.09,3040.6,16.49,C,right,0.19,52,0.59,16,0.81,12,-999.0,-999,-999,99.0,2,1,3,0.0,0.0,0.0,0.0,0.0,0.0,10
34,2,2586.52,40,3057.43,3058.95,7.67,B,mid,0.32,31,0.48,20,0.85,11,-999.0,-999,-999,99.0,1,2,3,0.0,0.0,0.0,0.0,0.0,0.0,0
34,2,2586.52,41,3066.96,3068.48,5.58,A,right,0.75,12,0.62,15,0.88,9,0.58,29,-999,1.0,3,1,2,0.0,0.0,-3.0,0.0,3.0,-1.0,0
34,2,2586.52,42,3074.39,3075.91,7.26,A,left,0.75,12,0.65,14,0.73,11,0.63,13,-999,31.0,1,2,3,0.0,0.0,0.0,-1.0,-3.0,-1.0,100
34,2,2586.52,43,3083.51,3085.02,13.74,C,right,0.75,11,0.68,14,0.85,9,0.55,29,-999,2.0,2,1,3,0.0,-1.0,3.0,-1.0,0.0,-1.0,101
34,2,2586.52,44,3099.1,3100.62,13.23,B,mid,0.72,12,0.68,15,0.82,9,0.52,29,-999,1.0,1,2,3,-3.0,0.0,3.0,0.0,-3.0,-1.0,100
34,2,2586.52,45,3114.2,3115.71,9.85,A,mid,0.78,12,0.65,14,0.82,10,0.52,30,-999,1.0,2,3,1,3.0,0.0,0.0,-1.0,-3.0,0.0,11
34,2,2586.52,46,3125.91,3127.43,6.02,C,left,0.72,12,0.68,15,0.82,10,0.52,30,-999,2.0,3,2,1,-3.0,0.0,3.0,0.0,-3.0,0.0,11
34,2,2586.52,47,3133.79,3135.31,5.22,C,right,0.75,12,0.62,14,0.88,10,0.58,30,-999,2.0,2,1,3,0.0,0.0,-3.0,-1.0,3.0,0.0,10
34,2,2586.52,48,3140.87,3142.39,5.02,A,left,0.75,12,0.65,15,0.73,11,0.63,14,-999,31.0,1,3,2,0.0,0.0,0.0,0.0,0.0,-1.0,10
34,2,2586.52,49,3147.75,3149.27,6.11,A,mid,0.78,12,0.62,15,0.76,11,0.6,14,-999,32.0,2,1,3,3.0,0.0,-3.0,0.0,3.0,0.0,110
34,2,2586.52,50,3155.72,3157.23,4.16,A,left,0.78,11,0.62,14,0.76,10,0.6,13,-999,32.0,1,3,2,3.0,-1.0,-3.0,-1.0,0.0,-1.0,0
34,2,2586.52,51,3161.73,3163.25,6.55,A,left,0.72,12,0.68,15,0.82,9,0.52,29,-999,1.0,1,2,3,-3.0,0.0,3.0,0.0,-3.0,-1.0,110
34,2,2586.52,52,3170.15,3171.66,5.56,A,mid,0.72,12,0.65,15,0.82,9,0.52,29,-999,2.0,2,3,1,-3.0,0.0,0.0,0.0,-3.0,-1.0,111
34,2,2586.52,53,3177.56,3179.08,15.78,C,right,0.32,31,0.6,16,0.78,12,-999.0,-999,-999,99.0,2,1,3,0.0,0.0,0.0,0.0,0.0,0.0,101
34,2,2586.52,54,3195.2,3196.72,8.69,A,right,0.78,12,0.65,15,0.76,11,0.63,14,-999,32.0,3,2,1,3.0,0.0,0.0,0.0,0.0,0.0,100
34,2,2586.52,55,3205.75,3207.27,2.9,A,left,0.78,12,0.68,15,0.76,11,0.66,14,-999,31.0,1,2,3,3.0,0.0,3.0,0.0,0.0,0.0,111
34,2,2586.52,56,3210.5,3212.02,8.03,C,right,0.78,11,0.68,15,0.88,10,0.58,30,-999,1.0,1,2,3,3.0,-1.0,3.0,0.0,3.0,0.0,1
34,2,2586.52,57,3220.38,3221.9,6.45,A,right,0.72,12,0.62,15,0.7,11,0.6,14,-999,31.0,3,2,1,-3.0,0.0,-3.0,0.0,0.0,-1.0,0
34,2,2586.52,58,3228.69,3230.21,9.85,C,left,0.72,12,0.68,14,0.88,10,0.58,30,-999,2.0,2,3,1,-3.0,0.0,3.0,-1.0,3.0,0.0,10
34,2,2586.52,59,3240.39,3241.91,4.65,C,mid,0.19,52,0.56,17,0.8,12,-999.0,-999,-999,99.0,3,1,2,0.0,0.0,0.0,0.0,0.0,0.0,111
34,2,2586.52,60,3246.89,3248.4,8.3,A,right,0.75,12,0.65,15,0.82,9,0.52,29,-999,1.0,3,2,1,0.0,0.0,0.0,0.0,-3.0,-1.0,110
34,2,2586.52,61,3257.05,3258.57,3.87,C,right,0.72,11,0.62,14,0.88,10,0.58,30,-999,2.0,1,2,3,-3.0,-1.0,-3.0,-1.0,3.0,0.0,100
34,2,2586.52,62,3262.78,3264.3,5.02,A,left,0.72,12,0.62,14,0.7,11,0.6,13,-999,32.0,1,2,3,-3.0,0.0,-3.0,-1.0,0.0,0.0,0
34,2,2586.52,63,3269.65,3271.16,6.98,A,left,0.78,12,0.65,15,0.76,11,0.63,14,-999,32.0,1,2,3,3.0,0.0,0.0,0.0,-3.0,-1.0,10
34,2,2586.52,64,3278.48,3280.0,6.19,A,right,0.72,12,0.65,15,0.7,11,0.63,14,-999,31.0,3,1,2,-3.0,0.0,0.0,0.0,-3.0,-1.0,0
34,2,2586.52,65,3286.53,3288.04,6.0,A,mid,0.72,12,0.65,15,0.82,9,0.52,29,-999,1.0,2,3,1,-3.0,0.0,0.0,0.0,-3.0,-1.0,110
34,2,2586.52,66,3294.39,3295.91,4.77,C,left,0.72,12,0.62,14,0.85,10,0.55,30,-999,2.0,3,2,1,-3.0,0.0,-3.0,-1.0,0.0,0.0,10
34,2,2586.52,67,3301.02,3302.54,6.14,A,right,0.78,12,0.65,14,0.82,9,0.52,29,-999,2.0,3,2,1,3.0,0.0,0.0,-1.0,-3.0,-1.0,110
34,2,2586.52,68,3309.02,3310.54,4.36,A,right,0.78,12,0.62,14,0.85,9,0.55,29,-999,1.0,3,1,2,3.0,0.0,-3.0,-1.0,0.0,-1.0,10
34,2,2586.52,69,3315.23,3316.75,16.87,C,right,0.75,12,0.65,14,0.85,9,0.55,29,-999,2.0,2,1,3,0.0,0.0,0.0,-1.0,0.0,-1.0,1
34,2,2586.52,70,3333.96,3335.48,5.33,A,right,0.72,12,0.65,14,0.7,11,0.63,13,-999,32.0,3,2,1,-3.0,0.0,0.0,-1.0,3.0,0.0,110
34,2,2586.52,71,3341.14,3342.66,4.13,A,left,0.78,11,0.68,14,0.76,10,0.66,13,-999,32.0,1,3,2,3.0,-1.0,3.0,-1.0,3.0,-1.0,110
34,2,2586.52,72,3347.12,3348.64,9.11,B,mid,0.75,11,0.68,15,0.88,10,0.58,30,-999,1.0,3,2,1,0.0,-1.0,3.0,0.0,3.0,0.0,110
34,2,2586.52,73,3358.09,3359.6,4.07,B,mid,0.75,11,0.62,15,0.88,10,0.58,30,-999,1.0,3,2,1,0.0,-1.0,-3.0,0.0,3.0,0.0,11
34,2,2586.52,74,3364.02,3365.54,12.03,B,right,0.16,62,0.46,21,0.87,11,-999.0,-999,-999,99.0,1,3,2,0.0,0.0,0.0,0.0,0.0,0.0,111
34,2,2586.52,75,3377.9,3379.41,10.88,A,right,0.72,11,0.62,15,0.7,10,0.6,14,-999,32.0,3,1,2,-3.0,-1.0,-3.0,0.0,-3.0,-1.0,100
34,Estimation3,3454.49,E1,3454.56,3456.07,5.88,A,right,0.75,11,0.65,15,0.85,-999,0.55,20,3,,3,2,1,,,,,,,11
34,Estimation3,3454.49,E2,3462.29,3463.8,3.47,B,mid,0.75,8,0.65,15,0.85,-999,0.55,20,1,2.0,1,2,3,,,,,,,110
34,Estimation3,3454.49,E3,3467.62,3469.14,3.45,B,mid,0.75,8,0.65,15,0.85,-999,0.55,28,3,,1,2,3,,,,,,,0
34,Estimation3,3454.49,E4,3472.92,3474.43,5.15,B,mid,0.75,10,0.65,15,0.85,-999,0.55,28,1,2.0,3,2,1,,,,,,,111
34,Estimation3,3454.49,E5,3479.93,3481.45,3.54,A,right,0.75,10,0.65,15,0.85,-999,0.55,32,3,,3,1,2,,,,,,,101
34,Estimation3,3454.49,E6,3485.33,3486.85,3.13,C,right,0.75,9,0.65,15,0.85,-999,0.55,32,1,2.0,1,2,3,,,,,,,11
34,Estimation3,3454.49,E7,3490.31,3491.83,2.01,B,mid,0.75,9,0.65,15,0.85,-999,0.55,30,3,,3,2,1,,,,,,,0
34,Estimation3,3454.49,E8,3494.18,3495.69,3.13,C,mid,0.75,10,0.65,15,0.85,-999,0.55,30,1,2.0,1,3,2,,,,,,,0
34,Estimation3,3454.49,E9,3499.16,3500.68,5.47,A,mid,0.75,10,0.65,15,0.85,-999,0.55,29,3,,2,3,1,,,,,,,10
34,Estimation3,3454.49,E10,3506.49,3508.01,2.43,C,right,0.75,10,0.65,15,0.85,5,0.55,29,1,2.0,2,1,3,,,,,,,11
34,Estimation3,3454.49,E11,3510.77,3512.29,3.13,A,left,0.75,10,0.65,15,0.85,5,0.55,29,2,1.0,1,3,2,,,,,,,100
34,Estimation3,3454.49,E12,3515.75,3517.27,2.83,C,left,0.75,10,0.65,15,0.85,7,0.55,29,1,2.0,3,2,1,,,,,,,101
34,Estimation3,3454.49,E13,3520.45,3521.97,2.54,A,left,0.75,10,0.65,15,0.85,7,0.55,29,2,1.0,1,2,3,,,,,,,101
34,Estimation3,3454.49,E14,3524.85,3526.37,4.18,C,left,0.75,10,0.65,15,0.85,8,0.55,29,1,2.0,3,2,1,,,,,,,10
34,Estimation3,3454.49,E15,3530.88,3532.4,3.23,A,mid,0.75,10,0.65,15,0.85,8,0.55,29,2,1.0,2,3,1,,,,,,,111
34,3,3538.48,1,3538.55,3540.06,4.86,C,mid,0.28,35,0.67,14,0.78,12,-999.0,-999,-999,99.0,3,1,2,0.0,0.0,0.0,0.0,0.0,0.0,111
34,3,3538.48,2,3545.26,3546.78,6.81,B,right,0.78,10,0.65,15,0.76,9,0.63,14,-999,32.0,1,3,2,3.0,0.0,0.0,0.0,0.0,0.0,1
34,3,3538.48,3,3553.93,3555.44,17.68,B,left,0.72,10,0.65,15,0.82,7,0.52,28,-999,1.0,3,1,2,-3.0,0.0,0.0,0.0,-3.0,-1.0,10
34,3,3538.48,4,3573.45,3574.97,9.35,B,mid,0.78,9,0.62,15,0.76,8,0.6,14,-999,32.0,1,2,3,3.0,-1.0,-3.0,0.0,-3.0,-1.0,11
34,3,3538.48,5,3584.67,3586.18,9.45,C,mid,0.72,9,0.68,15,0.88,8,0.58,29,-999,2.0,1,3,2,-3.0,-1.0,3.0,0.0,3.0,0.0,10
34,3,3538.48,6,3595.98,3597.49,9.09,B,left,0.75,9,0.68,14,0.73,8,0.66,13,-999,32.0,3,1,2,0.0,-1.0,3.0,-1.0,0.0,0.0,1
34,3,3538.48,7,3606.93,3608.44,6.43,A,mid,0.78,10,0.62,14,0.85,7,0.55,28,-999,1.0,2,3,1,3.0,0.0,-3.0,-1.0,0.0,-1.0,101
34,3,3538.48,8,3615.21,3616.72,13.36,C,left,0.75,10,0.65,14,0.85,7,0.55,28,-999,2.0,3,2,1,0.0,0.0,0.0,-1.0,0.0,-1.0,110
34,3,3538.48,9,3630.42,3631.93,4.15,B,mid,0.72,10,0.68,15,0.82,7,0.52,28,-999,1.0,3,2,1,-3.0,0.0,3.0,0.0,-3.0,-1.0,111
34,3,3538.48,10,3636.42,3637.93,8.84,A,left,0.78,10,0.68,15,0.76,9,0.66,14,-999,31.0,1,2,3,3.0,0.0,3.0,0.0,0.0,0.0,1
34,3,3538.48,11,3647.11,3648.63,8.4,B,mid,0.75,9,0.65,14,0.73,8,0.63,13,-999,32.0,1,2,3,0.0,-1.0,0.0,-1.0,3.0,0.0,0
34,3,3538.48,12,3657.36,3658.88,25.96,B,right,0.32,31,0.48,20,0.85,11,-999.0,-999,-999,99.0,2,3,1,0.0,0.0,0.0,0.0,0.0,0.0,111
34,3,3538.48,13,3685.18,3686.7,8.92,B,right,0.72,10,0.68,14,0.7,9,0.66,13,-999,32.0,1,3,2,-3.0,0.0,3.0,-1.0,0.0,-1.0,11
34,3,3538.48,14,3695.96,3697.48,8.58,C,right,0.29,34,0.42,23,0.72,13,-999.0,-999,-999,99.0,2,1,3,0.0,0.0,0.0,0.0,0.0,0.0,11
34,3,3538.48,15,3706.39,3707.91,10.35,B,mid,0.72,10,0.68,15,0.82,7,0.52,28,-999,1.0,1,2,3,-3.0,0.0,3.0,0.0,-3.0,-1.0,110
34,3,3538.48,16,3718.61,3720.12,4.01,C,mid,0.75,9,0.68,14,0.85,7,0.55,28,-999,2.0,3,1,2,0.0,-1.0,3.0,-1.0,0.0,-1.0,10
34,3,3538.48,17,3724.47,3725.99,5.17,C,right,0.19,52,0.56,17,0.8,12,-999.0,-999,-999,99.0,2,1,3,0.0,0.0,0.0,0.0,0.0,0.0,100
34,3,3538.48,18,3731.5,3733.02,6.61,C,right,0.31,32,0.38,26,0.85,11,-999.0,-999,-999,99.0,1,2,3,0.0,0.0,0.0,0.0,0.0,0.0,11
34,3,3538.48,19,3739.97,3741.48,7.96,B,right,0.72,9,0.62,15,0.7,8,0.6,14,-999,32.0,1,3,2,-3.0,-1.0,-3.0,0.0,-3.0,-1.0,111
34,3,3538.48,20,3749.78,3751.3,24.89,C,left,0.24,41,0.37,27,0.76,13,-999.0,-999,-999,99.0,2,3,1,0.0,0.0,0.0,0.0,0.0,0.0,11
34,3,3538.48,21,3776.54,3778.05,6.29,A,mid,0.72,10,0.62,15,0.7,9,0.6,14,-999,31.0,2,3,1,-3.0,0.0,-3.0,0.0,0.0,-1.0,10
34,3,3538.48,22,3784.69,3786.2,6.08,A,right,0.78,10,0.65,15,0.76,9,0.63,14,-999,32.0,3,2,1,3.0,0.0,0.0,0.0,-3.0,-1.0,101
34,3,3538.48,23,3792.63,3794.15,4.69,A,right,0.72,10,0.62,14,0.7,9,0.6,13,-999,32.0,3,2,1,-3.0,0.0,-3.0,-1.0,0.0,0.0,111
34,3,3538.48,24,3799.18,3800.7,8.81,B,left,0.72,10,0.62,15,0.7,9,0.6,14,-999,32.0,3,1,2,-3.0,0.0,-3.0,0.0,0.0,0.0,10
34,3,3538.48,25,3809.84,3811.36,7.85,B,left,0.27,37,0.47,21,0.86,11,-999.0,-999,-999,99.0,2,1,3,0.0,0.0,0.0,0.0,0.0,0.0,110
34,3,3538.48,26,3819.56,3821.07,4.8,C,mid,0.72,10,0.62,14,0.85,8,0.55,29,-999,2.0,1,3,2,-3.0,0.0,-3.0,-1.0,0.0,0.0,0
34,3,3538.48,27,3826.22,3827.74,7.19,A,mid,0.78,10,0.62,15,0.76,9,0.6,14,-999,32.0,2,3,1,3.0,0.0,-3.0,0.0,3.0,0.0,11
34,3,3538.48,28,3835.27,3836.79,10.36,A,left,0.75,10,0.65,14,0.73,9,0.63,13,-999,31.0,1,2,3,0.0,0.0,0.0,-1.0,0.0,0.0,11
34,3,3538.48,29,3847.48,3849.0,8.23,B,left,0.72,9,0.68,14,0.7,8,0.66,13,-999,31.0,3,1,2,-3.0,-1.0,3.0,-1.0,-3.0,0.0,110
34,3,3538.48,30,3857.56,3859.08,5.26,B,left,0.75,10,0.65,14,0.73,9,0.63,13,-999,31.0,3,1,2,0.0,0.0,0.0,-1.0,-3.0,-1.0,10
34,3,3538.48,31,3864.68,3866.19,10.07,B,right,0.75,10,0.65,15,0.73,9,0.63,14,-999,31.0,1,3,2,0.0,0.0,0.0,0.0,0.0,0.0,1
34,3,3538.48,32,3876.61,3878.12,6.04,B,left,0.75,9,0.62,15,0.73,8,0.6,14,-999,32.0,2,1,3,0.0,-1.0,-3.0,0.0,-3.0,0.0,11
34,3,3538.48,33,3884.5,3886.02,10.51,B,right,0.72,9,0.65,14,0.7,8,0.63,13,-999,31.0,1,3,2,-3.0,-1.0,0.0,-1.0,3.0,-1.0,110
34,3,3538.48,34,3896.87,3898.38,2.96,B,left,0.75,9,0.65,15,0.73,8,0.63,14,-999,31.0,2,1,3,0.0,-1.0,0.0,0.0,3.0,-1.0,100
34,3,3538.48,35,3901.68,3903.2,2.74,B,right,0.78,9,0.62,15,0.76,8,0.6,14,-999,31.0,2,3,1,3.0,-1.0,-3.0,0.0,0.0,0.0,10
34,3,3538.48,36,3906.28,3907.8,9.18,B,mid,0.72,10,0.62,15,0.7,9,0.6,14,-999,32.0,3,2,1,-3.0,0.0,-3.0,0.0,3.0,-1.0,1
34,3,3538.48,37,3917.33,3918.84,7.25,B,left,0.72,10,0.65,14,0.7,9,0.63,13,-999,32.0,2,1,3,-3.0,0.0,0.0,-1.0,3.0,0.0,10
34,3,3538.48,38,3953.88,3955.4,4.37,C,mid,0.78,10,0.62,14,0.85,8,0.55,29,-999,2.0,3,1,2,3.0,0.0,-3.0,-1.0,0.0,0.0,100
34,3,3538.48,39,3960.1,3961.61,6.18,B,mid,0.72,9,0.65,15,0.7,8,0.63,14,-999,31.0,1,2,3,-3.0,-1.0,0.0,0.0,3.0,-1.0,100
34,3,3538.48,40,3968.14,3969.66,9.99,C,left,0.72,9,0.62,14,0.88,8,0.58,29,-999,2.0,2,3,1,-3.0,-1.0,-3.0,-1.0,3.0,0.0,0
34,3,3538.48,41,3979.99,3981.51,5.67,C,left,0.27,37,0.61,16,0.89,11,-999.0,-999,-999,99.0,3,2,1,0.0,0.0,0.0,0.0,0.0,0.0,11
34,3,3538.48,42,3987.52,3989.04,9.04,B,right,0.78,9,0.65,15,0.76,8,0.63,14,-999,32.0,1,3,2,3.0,-1.0,0.0,0.0,-3.0,-1.0,0
34,3,3538.48,43,3998.42,3999.93,15.32,B,left,0.78,10,0.68,15,0.82,8,0.52,29,-999,1.0,3,1,2,3.0,0.0,3.0,0.0,-3.0,0.0,110
34,3,3538.48,44,4015.6,4017.11,4.1,C,mid,0.75,10,0.62,14,0.88,8,0.58,29,-999,2.0,1,3,2,0.0,0.0,-3.0,-1.0,3.0,0.0,100
34,3,3538.48,45,4021.56,4023.08,4.79,C,mid,0.72,10,0.68,14,0.88,8,0.58,29,-999,2.0,1,3,2,-3.0,0.0,3.0,-1.0,3.0,0.0,111
34,3,3538.48,46,4028.21,4029.73,3.33,B,right,0.75,9,0.62,15,0.88,8,0.58,29,-999,1.0,2,3,1,0.0,-1.0,-3.0,0.0,3.0,0.0,111
34,3,3538.48,47,4033.39,4034.91,6.09,A,right,0.78,10,0.68,15,0.88,7,0.58,28,-999,1.0,3,2,1,3.0,0.0,3.0,0.0,3.0,-1.0,101
34,3,3538.48,48,4041.34,4042.85,4.99,B,mid,0.75,9,0.68,14,0.73,8,0.66,13,-999,31.0,3,2,1,0.0,-1.0,3.0,-1.0,0.0,-1.0,1
34,3,3538.48,49,4048.19,4049.7,3.67,B,left,0.72,9,0.65,15,0.7,8,0.63,14,-999,31.0,3,1,2,-3.0,-1.0,0.0,0.0,3.0,-1.0,100
34,3,3538.48,50,4053.72,4055.23,2.63,A,mid,0.75,10,0.65,15,0.82,7,0.52,28,-999,1.0,2,1,3,0.0,0.0,0.0,0.0,-3.0,-1.0,0
34,3,3538.48,51,4058.2,4059.72,11.32,A,mid,0.72,10,0.65,15,0.7,9,0.63,14,-999,31.0,2,3,1,-3.0,0.0,0.0,0.0,-3.0,-1.0,111
34,3,3538.48,52,4071.38,4072.9,3.08,C,left,0.72,10,0.62,14,0.85,8,0.55,29,-999,2.0,3,2,1,-3.0,0.0,-3.0,-1.0,0.0,0.0,111
34,3,3538.48,53,4076.31,4077.83,8.1,B,left,0.72,10,0.65,15,0.82,7,0.52,28,-999,2.0,2,1,3,-3.0,0.0,0.0,0.0,-3.0,-1.0,101
34,3,3538.48,54,4086.26,4087.77,12.51,C,left,0.16,62,0.46,21,0.87,11,-999.0,-999,-999,99.0,2,3,1,0.0,0.0,0.0,0.0,0.0,0.0,101
34,3,3538.48,55,4100.62,4102.14,3.61,A,left,0.75,10,0.62,15,0.88,7,0.58,28,-999,1.0,1,2,3,0.0,0.0,-3.0,0.0,3.0,-1.0,111
34,3,3538.48,56,4106.08,4107.6,8.5,C,mid,0.78,10,0.65,14,0.82,7,0.52,28,-999,2.0,3,1,2,3.0,0.0,0.0,-1.0,-3.0,-1.0,100
34,3,3538.48,57,4116.45,4117.96,3.07,C,mid,0.75,9,0.62,15,0.88,7,0.58,28,-999,2.0,1,3,2,0.0,-1.0,-3.0,0.0,3.0,-1.0,101
34,3,3538.48,58,4121.38,4122.9,2.97,A,left,0.78,10,0.62,14,0.76,9,0.6,13,-999,31.0,1,3,2,3.0,0.0,-3.0,-1.0,-3.0,0.0,100
34,3,3538.48,59,4126.21,4127.73,3.61,B,right,0.78,9,0.68,14,0.76,8,0.66,13,-999,32.0,2,3,1,3.0,-1.0,3.0,-1.0,3.0,-1.0,101
34,3,3538.48,60,4131.68,4133.19,2.85,C,mid,0.72,9,0.65,15,0.88,7,0.58,28,-999,2.0,1,3,2,-3.0,-1.0,0.0,0.0,3.0,-1.0,111
34,3,3538.48,61,4136.39,4137.91,4.88,A,mid,0.78,10,0.65,14,0.82,8,0.52,29,-999,1.0,2,3,1,3.0,0.0,0.0,-1.0,-3.0,0.0,10
34,3,3538.48,62,4143.12,4144.64,3.6,B,mid,0.78,9,0.62,14,0.76,8,0.6,13,-999,32.0,3,2,1,3.0,-1.0,-3.0,-1.0,0.0,-1.0,0
34,3,3538.48,63,4148.59,4150.1,4.1,B,right,0.78,9,0.68,15,0.85,7,0.55,28,-999,1.0,2,3,1,3.0,-1.0,3.0,0.0,0.0,-1.0,111
34,3,3538.48,64,4154.54,4156.05,2.7,B,right,0.78,9,0.68,15,0.76,8,0.66,14,-999,31.0,2,3,1,3.0,-1.0,3.0,0.0,0.0,0.0,10
34,3,3538.48,65,4159.08,4160.6,5.0,C,mid,0.72,9,0.65,15,0.85,8,0.55,29,-999,2.0,1,3,2,-3.0,-1.0,0.0,0.0,0.0,0.0,11
34,3,3538.48,66,4165.95,4167.47,3.5,B,right,0.78,9,0.68,15,0.88,8,0.58,29,-999,1.0,1,3,2,3.0,-1.0,3.0,0.0,3.0,0.0,0
34,3,3538.48,67,4171.31,4172.83,3.41,C,right,0.78,10,0.65,14,0.82,7,0.52,28,-999,1.0,2,1,3,3.0,0.0,0.0,-1.0,-3.0,-1.0,110
34,3,3538.48,68,4176.58,4178.1,11.49,A,mid,0.75,10,0.65,15,0.73,9,0.63,14,-999,31.0,2,1,3,0.0,0.0,0.0,0.0,0.0,-1.0,111
34,3,3538.48,69,4189.93,4191.44,12.59,C,right,0.19,52,0.59,16,0.81,12,-999.0,-999,-999,99.0,2,1,3,0.0,0.0,0.0,0.0,0.0,0.0,111
34,3,3538.48,70,4204.37,4205.89,7.32,B,left,0.78,9,0.62,15,0.85,7,0.55,28,-999,1.0,3,1,2,3.0,-1.0,-3.0,0.0,0.0,-1.0,0
34,3,3538.48,71,4213.55,4215.07,3.18,A,mid,0.75,10,0.65,15,0.85,8,0.55,29,-999,1.0,2,3,1,0.0,0.0,0.0,0.0,0.0,0.0,10
34,3,3538.48,72,4218.58,4220.1,3.98,B,mid,0.72,10,0.68,15,0.82,8,0.52,29,-999,2.0,3,2,1,-3.0,0.0,3.0,0.0,-3.0,0.0,11
34,3,3538.48,73,4224.41,4225.93,5.83,C,right,0.32,31,0.6,16,0.78,12,-999.0,-999,-999,99.0,1,2,3,0.0,0.0,0.0,0.0,0.0,0.0,1
34,3,3538.48,74,4232.1,4233.61,2.94,C,right,0.72,9,0.68,14,0.85,8,0.55,29,-999,2.0,2,1,3,-3.0,-1.0,3.0,-1.0,0.0,0.0,0
34,3,3538.48,75,4236.89,4238.41,2.98,B,mid,0.75,9,0.68,15,0.88,8,0.58,29,-999,1.0,3,2,1,0.0,-1.0,3.0,0.0,3.0,0.0,11
