subject,block,block_onset,trial,fixation_cross_onset,trial_onset,rt,choice,key,pA,mA,pB,mB,pCA,mCA,pCB,mCB,missing,condition,position_A,position_B,position_C,noise_Ap,noise_Am,noise_Bp,noise_Bm,noise_Cp,noise_Cm,attribute_positions
37,Practice,945.53,P1,945.58,947.1,5.49,B,left,0.78,7,0.62,17,0.85,3,0.55,24,-999,2.0,3,1,2,3.0,-2.0,-3.0,2.0,0.0,-1.0,1
37,Practice,945.53,P2,952.93,954.44,6.86,C,right,0.72,7,0.62,16,0.88,5,0.58,26,-999,2.0,1,2,3,-3.0,-2.0,-3.0,1.0,3.0,1.0,10
37,Practice,945.53,P3,961.64,963.16,5.96,B,right,0.75,11,0.68,13,0.85,4,0.55,25,-999,1.0,2,3,1,0.0,2.0,3.0,-2.0,0.0,0.0,110
37,Practice,945.53,P4,969.46,970.97,6.7,B,left,0.75,9,0.65,15,0.88,5,0.58,26,-999,1.0,3,1,2,0.0,0.0,0.0,0.0,3.0,1.0,100
37,Practice,945.53,P5,978.02,979.54,7.95,B,right,0.72,11,0.62,13,0.85,6,0.55,27,-999,1.0,1,3,2,-3.0,2.0,-3.0,-2.0,0.0,2.0,101
37,Practice,945.53,P6,987.83,989.35,10.73,C,left,0.78,7,0.62,13,0.82,6,0.52,27,-999,2.0,2,3,1,3.0,-2.0,-3.0,-2.0,-3.0,2.0,110
37,Practice,945.53,P7,1000.43,1001.95,23.66,C,right,0.75,7,0.65,17,0.85,5,0.55,26,-999,2.0,2,1,3,0.0,-2.0,0.0,2.0,0.0,1.0,111
37,Practice,945.53,P8,1025.94,1027.45,6.67,C,mid,0.72,8,0.68,15,0.82,6,0.52,27,-999,2.0,3,1,2,-3.0,-1.0,3.0,0.0,-3.0,2.0,110
37,Practice,945.53,P9,1034.47,1035.98,3.02,B,left,0.78,8,0.62,16,0.88,5,0.58,26,-999,1.0,3,1,2,3.0,-1.0,-3.0,1.0,3.0,1.0,1
37,Practice,945.53,P10,1039.33,1040.85,4.7,B,mid,0.75,10,0.65,16,0.82,2,0.52,23,-999,2.0,1,2,3,0.0,1.0,0.0,1.0,-3.0,-2.0,101
37,Practice,945.53,P11,1045.9,1047.41,5.94,C,left,0.72,8,0.65,15,0.85,5,0.55,26,-999,2.0,2,3,1,-3.0,-1.0,0.0,0.0,0.0,1.0,0
37,Practice,945.53,P12,1053.7,1055.21,8.97,B,right,0.72,8,0.68,15,0.85,5,0.55,26,-999,1.0,2,3,1,-3.0,-1.0,3.0,0.0,0.0,1.0,101
37,Practice,945.53,P13,1064.53,1066.04,5.41,B,left,0.78,11,0.68,16,0.88,5,0.58,26,-999,1.0,2,1,3,3.0,2.0,3.0,1.0,3.0,1.0,111
37,Practice,945.53,P14,1071.79,1073.31,7.11,C,left,0.72,11,0.62,17,0.82,3,0.52,24,-999,2.0,3,2,1,-3.0,2.0,-3.0,2.0,-3.0,-1.0,0
37,Practice,945.53,P15,1080.75,1082.27,6.7,C,left,0.78,7,0.68,14,0.88,5,0.58,26,-999,2.0,2,3,1,3.0,-2.0,3.0,-1.0,3.0,1.0,10
37,Practice,945.53,P16,1089.3,1090.82,8.17,C,right,0.78,7,0.65,13,0.82,2,0.52,23,-999,2.0,2,1,3,3.0,-2.0,0.0,-2.0,-3.0,-2.0,1
37,Practice,945.53,P17,1099.33,1100.85,5.43,C,left,0.72,10,0.65,13,0.82,5,0.52,26,-999,2.0,3,2,1,-3.0,1.0,0.0,-2.0,-3.0,1.0,110
37,Practice,945.53,P18,1106.61,1108.13,5.94,C,mid,0.78,7,0.68,13,0.88,2,0.58,23,-999,2.0,3,1,2,3.0,-2.0,3.0,-2.0,3.0,-2.0,10
37,Practice,945.53,P19,1114.41,1115.93,3.8,B,left,0.78,11,0.62,15,0.85,4,0.55,25,-999,1.0,3,1,2,3.0,2.0,-3.0,0.0,0.0,0.0,110
37,Practice,945.53,P20,1120.07,1121.59,4.3,B,right,0.72,7,0.65,14,0.88,4,0.58,25,-999,1.0,1,3,2,-3.0,-2.0,0.0,-1.0,3.0,0.0,11
37,Practice,945.53,P21,1126.22,1127.74,4.59,B,left,0.78,9,0.65,16,0.85,2,0.55,23,-999,1.0,3,1,2,3.0,0.0,0.0,1.0,0.0,-2.0,0
37,Practice,945.53,P22,1132.67,1134.19,7.45,B,right,0.72,9,0.62,15,0.85,2,0.55,23,-999,1.0,1,3,2,-3.0,0.0,-3.0,0.0,0.0,-2.0,10
37,Practice,945.53,P23,1141.97,1143.48,1.87,B,left,0.72,7,0.65,13,0.88,3,0.58,24,-999,1.0,3,1,2,-3.0,-2.0,0.0,-2.0,3.0,-1.0,100
37,Practice,945.53,P24,1145.68,1147.2,2.55,C,right,0.78,7,0.65,13,0.82,5,0.52,26,-999,2.0,2,1,3,3.0,-2.0,0.0,-2.0,-3.0,1.0,10
37,Practice,945.53,P25,1150.08,1151.6,6.1,A,mid,0.78,10,0.68,13,0.85,4,0.55,25,-999,1.0,2,3,1,3.0,1.0,3.0,-2.0,0.0,0.0,111
37,Estimation1,1330.93,E1,1330.99,1332.51,10.86,A,mid,0.75,11,0.65,15,0.85,-999,0.55,20,3,,2,1,3,,,,,,,11
37,Estimation1,1330.93,E2,1343.7,1345.22,4.15,C,mid,0.75,8,0.65,15,0.85,-999,0.55,20,1,2.0,1,3,2,,,,,,,101
37,Estimation1,1330.93,E3,1349.7,1351.22,3.6,B,left,0.75,8,0.65,15,0.85,-999,0.55,18,3,,3,1,2,,,,,,,100
37,Estimation1,1330.93,E4,1355.17,1356.68,4.99,B,right,0.75,10,0.65,15,0.85,-999,0.55,18,1,2.0,2,3,1,,,,,,,101
37,Estimation1,1330.93,E5,1362.02,1363.53,4.6,B,mid,0.75,10,0.65,15,0.85,-999,0.55,19,3,,1,2,3,,,,,,,1
37,Estimation1,1330.93,E6,1368.48,1370.0,5.62,C,right,0.75,11,0.65,15,0.85,-999,0.55,19,1,2.0,2,1,3,,,,,,,101
37,Estimation1,1330.93,E7,1375.96,1377.48,4.92,B,mid,0.75,11,0.65,15,0.85,-999,0.55,19,3,,1,2,3,,,,,,,100
37,Estimation1,1330.93,E8,1382.74,1384.26,6.3,B,right,0.75,11,0.65,15,0.85,6,0.55,19,1,2.0,2,3,1,,,,,,,100
37,Estimation1,1330.93,E9,1390.91,1392.42,4.89,A,right,0.75,11,0.65,15,0.85,6,0.55,19,2,1.0,3,2,1,,,,,,,100
37,Estimation1,1330.93,E10,1397.65,1399.17,5.25,C,mid,0.75,11,0.65,15,0.85,8,0.55,19,1,2.0,1,3,2,,,,,,,0
37,Estimation1,1330.93,E11,1404.77,1406.28,6.49,A,left,0.75,11,0.65,15,0.85,8,0.55,19,2,1.0,1,2,3,,,,,,,101
37,Estimation1,1330.93,E12,1413.12,1414.63,5.46,C,right,0.75,11,0.65,15,0.85,9,0.55,19,1,2.0,2,1,3,,,,,,,110
37,Estimation1,1330.93,E13,1420.43,1421.95,6.28,C,right,0.75,11,0.65,15,0.85,9,0.55,19,2,1.0,2,1,3,,,,,,,11
37,1,1430.74,1,1430.81,1432.33,12.87,B,right,0.31,32,0.38,26,0.85,11,-999.0,-999,-999,99.0,1,3,2,0.0,0.0,0.0,0.0,0.0,0.0,0
37,1,1430.74,2,1445.56,1447.07,5.7,B,right,0.78,11,0.68,15,0.82,9,0.52,19,-999,1.0,1,3,2,3.0,0.0,3.0,0.0,-3.0,0.0,0
37,1,1430.74,3,1453.12,1454.64,13.52,B,left,0.72,11,0.62,14,0.7,10,0.6,13,-999,32.0,2,1,3,-3.0,0.0,-3.0,-1.0,0.0,0.0,111
37,1,1430.74,4,1468.5,1470.01,9.22,B,right,0.75,10,0.68,14,0.73,9,0.66,13,-999,31.0,1,3,2,0.0,-1.0,3.0,-1.0,0.0,-1.0,110
37,1,1430.74,5,1479.58,1481.09,5.79,A,left,0.27,37,0.61,16,0.89,11,-999.0,-999,-999,99.0,1,3,2,0.0,0.0,0.0,0.0,0.0,0.0,111
37,1,1430.74,6,1487.23,1488.74,18.55,C,left,0.32,31,0.6,16,0.78,12,-999.0,-999,-999,99.0,3,2,1,0.0,0.0,0.0,0.0,0.0,0.0,111
37,1,1430.74,7,1507.64,1509.15,5.32,B,right,0.78,10,0.68,15,0.88,9,0.58,19,-999,1.0,1,3,2,3.0,-1.0,3.0,0.0,3.0,0.0,101
37,1,1430.74,8,1514.82,1516.33,6.95,B,mid,0.72,11,0.62,15,0.7,10,0.6,14,-999,31.0,1,2,3,-3.0,0.0,-3.0,0.0,0.0,-1.0,101
37,1,1430.74,9,1523.61,1525.13,14.65,B,mid,0.75,11,0.65,14,0.73,10,0.63,13,-999,31.0,3,2,1,0.0,0.0,0.0,-1.0,0.0,0.0,1
37,1,1430.74,10,1540.13,1541.64,16.67,C,mid,0.75,10,0.62,15,0.88,9,0.58,19,-999,1.0,1,3,2,0.0,-1.0,-3.0,0.0,3.0,0.0,100
37,1,1430.74,11,1558.65,1560.17,10.33,B,right,0.78,11,0.68,15,0.76,10,0.66,14,-999,31.0,2,3,1,3.0,0.0,3.0,0.0,0.0,0.0,101
37,1,1430.74,12,1570.83,1572.35,13.81,C,left,0.27,37,0.47,21,0.86,11,-999.0,-999,-999,99.0,3,2,1,0.0,0.0,0.0,0.0,0.0,0.0,111
37,1,1430.74,13,1586.49,1588.01,7.52,A,left,0.78,11,0.65,15,0.76,10,0.63,14,-999,32.0,1,3,2,3.0,0.0,0.0,0.0,0.0,0.0,101
37,1,1430.74,14,1595.87,1597.39,10.74,B,left,0.72,11,0.65,14,0.7,10,0.63,13,-999,32.0,3,1,2,-3.0,0.0,0.0,-1.0,3.0,0.0,0
37,1,1430.74,15,1608.47,1609.99,10.18,B,left,0.72,11,0.68,15,0.82,8,0.52,18,-999,1.0,3,1,2,-3.0,0.0,3.0,0.0,-3.0,-1.0,0
37,1,1430.74,16,1620.5,1622.02,17.21,B,left,0.72,11,0.68,15,0.82,9,0.52,19,-999,2.0,3,1,2,-3.0,0.0,3.0,0.0,-3.0,0.0,111
37,1,1430.74,17,1639.58,1641.09,14.22,B,left,0.72,10,0.65,15,0.88,8,0.58,18,-999,2.0,3,1,2,-3.0,-1.0,0.0,0.0,3.0,-1.0,10
37,1,1430.74,18,1655.66,1657.17,17.46,B,mid,0.72,10,0.62,15,0.7,9,0.6,14,-999,32.0,3,2,1,-3.0,-1.0,-3.0,0.0,-3.0,-1.0,110
37,1,1430.74,19,1674.97,1676.48,14.53,B,left,0.78,10,0.68,15,0.85,8,0.55,18,-999,1.0,2,1,3,3.0,-1.0,3.0,0.0,0.0,-1.0,0
37,1,1430.74,20,1691.34,1692.86,13.32,B,left,0.72,11,0.65,15,0.7,10,0.63,14,-999,31.0,2,1,3,-3.0,0.0,0.0,0.0,-3.0,-1.0,11
37,1,1430.74,21,1706.52,1708.04,8.04,A,mid,0.78,11,0.65,14,0.82,8,0.52,18,-999,1.0,2,1,3,3.0,0.0,0.0,-1.0,-3.0,-1.0,101
37,1,1430.74,22,1716.42,1717.94,11.29,A,mid,0.75,11,0.65,15,0.85,9,0.55,19,-999,1.0,2,1,3,0.0,0.0,0.0,0.0,0.0,0.0,1
37,1,1430.74,23,1729.57,1731.08,15.09,B,right,0.72,11,0.68,15,0.82,8,0.52,18,-999,1.0,2,3,1,-3.0,0.0,3.0,0.0,-3.0,-1.0,11
37,1,1430.74,24,1746.51,1748.03,11.63,A,left,0.75,11,0.65,15,0.82,8,0.52,18,-999,1.0,1,2,3,0.0,0.0,0.0,0.0,-3.0,-1.0,100
37,1,1430.74,25,1759.99,1761.51,22.16,A,left,0.72,11,0.62,15,0.7,10,0.6,14,-999,32.0,1,3,2,-3.0,0.0,-3.0,0.0,0.0,0.0,11
37,1,1430.74,26,1784.0,1785.51,23.23,A,left,0.75,11,0.65,15,0.73,10,0.63,14,-999,31.0,1,2,3,0.0,0.0,0.0,0.0,0.0,-1.0,101
37,1,1430.74,27,1809.09,1810.61,16.03,C,right,0.72,10,0.62,14,0.88,9,0.58,19,-999,2.0,1,2,3,-3.0,-1.0,-3.0,-1.0,3.0,0.0,111
37,1,1430.74,28,1826.98,1828.5,14.14,A,mid,0.78,11,0.65,14,0.82,8,0.52,18,-999,2.0,2,1,3,3.0,0.0,0.0,-1.0,-3.0,-1.0,101
37,1,1430.74,29,1842.98,1844.5,17.96,C,left,0.75,11,0.62,15,0.88,8,0.58,18,-999,1.0,2,3,1,0.0,0.0,-3.0,0.0,3.0,-1.0,100
37,1,1430.74,30,1862.79,1864.31,15.36,B,left,0.72,11,0.65,15,0.82,8,0.52,18,-999,1.0,2,1,3,-3.0,0.0,0.0,0.0,-3.0,-1.0,0
37,1,1430.74,31,1880.0,1881.52,19.93,B,right,0.72,10,0.68,15,0.88,9,0.58,19,-999,2.0,2,3,1,-3.0,-1.0,3.0,0.0,3.0,0.0,110
37,1,1430.74,32,1901.79,1903.31,24.33,A,left,0.19,52,0.59,16,0.81,12,-999.0,-999,-999,99.0,1,2,3,0.0,0.0,0.0,0.0,0.0,0.0,10
37,1,1430.74,33,1927.97,1929.49,12.87,A,left,0.75,10,0.65,14,0.73,9,0.63,13,-999,32.0,1,3,2,0.0,-1.0,0.0,-1.0,3.0,0.0,100
37,1,1430.74,34,1942.7,1944.21,18.59,C,mid,0.75,11,0.62,14,0.88,9,0.58,19,-999,2.0,3,1,2,0.0,0.0,-3.0,-1.0,3.0,0.0,110
37,1,1430.74,35,1963.14,1964.66,15.29,B,right,0.72,11,0.65,15,0.82,8,0.52,18,-999,2.0,2,3,1,-3.0,0.0,0.0,0.0,-3.0,-1.0,0
37,1,1430.74,36,1980.29,1981.8,15.55,A,mid,0.29,34,0.42,23,0.72,13,-999.0,-999,-999,99.0,2,1,3,0.0,0.0,0.0,0.0,0.0,0.0,111
37,1,1430.74,37,1997.7,1999.21,15.3,B,mid,0.78,10,0.68,15,0.76,9,0.66,14,-999,31.0,1,2,3,3.0,-1.0,3.0,0.0,0.0,0.0,100
37,1,1430.74,38,2130.29,2131.8,11.13,A,left,0.72,11,0.62,15,0.7,10,0.6,14,-999,32.0,1,2,3,-3.0,0.0,-3.0,0.0,3.0,-1.0,110
37,1,1430.74,39,2143.27,2144.78,11.54,B,mid,0.16,62,0.46,21,0.87,11,-999.0,-999,-999,99.0,1,2,3,0.0,0.0,0.0,0.0,0.0,0.0,11
37,1,1430.74,40,2156.66,2158.18,16.45,C,mid,0.78,11,0.65,14,0.82,9,0.52,19,-999,1.0,3,1,2,3.0,0.0,0.0,-1.0,-3.0,0.0,110
37,1,1430.74,41,2174.97,2176.49,12.58,B,left,0.75,10,0.68,14,0.85,8,0.55,18,-999,2.0,2,1,3,0.0,-1.0,3.0,-1.0,0.0,-1.0,110
37,1,1430.74,42,2189.4,2190.92,20.17,C,mid,0.72,11,0.68,14,0.88,9,0.58,19,-999,2.0,1,3,2,-3.0,0.0,3.0,-1.0,3.0,0.0,1
37,1,1430.74,43,2211.43,2212.95,24.06,B,mid,0.75,10,0.62,15,0.73,9,0.6,14,-999,32.0,1,2,3,0.0,-1.0,-3.0,0.0,-3.0,0.0,110
37,1,1430.74,44,2237.34,2238.85,11.79,C,mid,0.72,11,0.62,14,0.85,9,0.55,19,-999,2.0,3,1,2,-3.0,0.0,-3.0,-1.0,0.0,0.0,10
37,1,1430.74,45,2250.98,2252.5,17.05,C,left,0.78,11,0.68,15,0.88,8,0.58,18,-999,1.0,3,2,1,3.0,0.0,3.0,0.0,3.0,-1.0,1
37,1,1430.74,46,2269.89,2271.41,26.8,C,right,0.78,11,0.62,14,0.85,8,0.55,18,-999,1.0,2,1,3,3.0,0.0,-3.0,-1.0,0.0,-1.0,10
37,1,1430.74,47,2298.55,2300.07,14.3,A,mid,0.78,10,0.68,14,0.76,9,0.66,13,-999,32.0,2,3,1,3.0,-1.0,3.0,-1.0,3.0,-1.0,11
37,1,1430.74,48,2314.71,2316.23,26.95,A,left,0.78,11,0.65,15,0.76,10,0.63,14,-999,32.0,1,2,3,3.0,0.0,0.0,0.0,-3.0,-1.0,10
37,1,1430.74,49,2343.52,2345.04,20.14,C,right,0.78,11,0.62,14,0.85,9,0.55,19,-999,2.0,1,2,3,3.0,0.0,-3.0,-1.0,0.0,0.0,11
37,1,1430.74,50,2365.51,2367.03,14.86,A,right,0.72,10,0.65,14,0.7,9,0.63,13,-999,31.0,3,2,1,-3.0,-1.0,0.0,-1.0,3.0,-1.0,0
37,1,1430.74,51,2382.23,2383.74,20.94,C,right,0.72,10,0.68,14,0.85,9,0.55,19,-999,2.0,2,1,3,-3.0,-1.0,3.0,-1.0,0.0,0.0,1
37,1,1430.74,52,2405.04,2406.55,13.11,A,mid,0.78,10,0.62,15,0.76,9,0.6,14,-999,31.0,2,1,3,3.0,-1.0,-3.0,0.0,0.0,0.0,10
37,1,1430.74,53,2420.0,2421.51,12.21,C,right,0.24,41,0.37,27,0.76,13,-999.0,-999,-999,99.0,1,2,3,0.0,0.0,0.0,0.0,0.0,0.0,0
37,1,1430.74,54,2434.06,2435.58,20.1,B,left,0.75,10,0.68,14,0.73,9,0.66,13,-999,32.0,2,1,3,0.0,-1.0,3.0,-1.0,0.0,0.0,100
37,1,1430.74,55,2456.02,2457.54,18.17,A,left,0.78,10,0.62,15,0.85,8,0.55,18,-999,1.0,1,2,3,3.0,-1.0,-3.0,0.0,0.0,-1.0,0
37,1,1430.74,56,2476.05,2477.56,11.22,C,left,0.32,31,0.48,20,0.85,11,-999.0,-999,-999,99.0,2,3,1,0.0,0.0,0.0,0.0,0.0,0.0,10
37,1,1430.74,57,2489.13,2490.64,16.38,A,left,0.75,11,0.65,15,0.73,10,0.63,14,-999,31.0,1,2,3,0.0,0.0,0.0,0.0,0.0,0.0,101
37,1,1430.74,58,2507.37,2508.89,12.1,B,right,0.72,10,0.65,15,0.7,9,0.63,14,-999,31.0,1,3,2,-3.0,-1.0,0.0,0.0,3.0,-1.0,111
37,1,1430.74,59,2521.33,2522.85,9.96,A,mid,0.75,11,0.65,14,0.85,8,0.55,18,-999,2.0,2,1,3,0.0,0.0,0.0,-1.0,0.0,-1.0,100
37,1,1430.74,60,2533.14,2534.66,14.13,A,right,0.78,11,0.62,15,0.76,10,0.6,14,-999,32.0,3,1,2,3.0,0.0,-3.0,0.0,3.0,0.0,110
37,1,1430.74,61,2549.14,2550.66,13.03,B,mid,0.75,10,0.65,15,0.73,9,0.63,14,-999,31.0,3,2,1,0.0,-1.0,0.0,0.0,3.0,-1.0,1
37,1,1430.74,62,2564.03,2565.55,15.96,A,right,0.75,11,0.65,14,0.73,10,0.63,13,-999,31.0,3,1,2,0.0,0.0,0.0,-1.0,-3.0,-1.0,111
37,1,1430.74,63,2581.85,2583.36,16.35,C,left,0.75,10,0.68,15,0.88,9,0.58,19,-999,1.0,3,2,1,0.0,-1.0,3.0,0.0,3.0,0.0,0
37,1,1430.74,64,2600.06,2601.57,14.48,A,left,0.78,10,0.62,15,0.76,9,0.6,14,-999,32.0,1,2,3,3.0,-1.0,-3.0,0.0,-3.0,-1.0,0
37,1,1430.74,65,2616.4,2617.92,20.27,A,mid,0.78,10,0.62,14,0.76,9,0.6,13,-999,32.0,2,3,1,3.0,-1.0,-3.0,-1.0,0.0,-1.0,110
37,1,1430.74,66,2638.53,2640.04,15.09,B,left,0.72,10,0.65,15,0.7,9,0.63,14,-999,31.0,2,1,3,-3.0,-1.0,0.0,0.0,3.0,-1.0,101
37,1,1430.74,67,2655.47,2656.99,19.93,C,right,0.28,35,0.67,14,0.78,12,-999.0,-999,-999,99.0,2,1,3,0.0,0.0,0.0,0.0,0.0,0.0,111
37,1,1430.74,68,2677.27,2678.78,20.47,B,right,0.72,11,0.68,14,0.7,10,0.66,13,-999,32.0,1,3,2,-3.0,0.0,3.0,-1.0,0.0,-1.0,10
37,1,1430.74,69,2699.59,2701.11,13.23,B,mid,0.72,10,0.68,14,0.7,9,0.66,13,-999,31.0,1,2,3,-3.0,-1.0,3.0,-1.0,-3.0,0.0,111
37,1,1430.74,70,2714.69,2716.2,16.96,A,right,0.78,10,0.65,15,0.76,9,0.63,14,-999,32.0,3,1,2,3.0,-1.0,0.0,0.0,-3.0,-1.0,111
37,1,1430.74,71,2733.5,2735.01,22.79,A,right,0.78,11,0.62,14,0.76,10,0.6,13,-999,31.0,3,2,1,3.0,0.0,-3.0,-1.0,-3.0,0.0,100
37,1,1430.74,72,2758.14,2759.66,22.57,C,mid,0.72,11,0.62,14,0.85,9,0.55,19,-999,2.0,3,1,2,-3.0,0.0,-3.0,-1.0,0.0,0.0,0
37,1,1430.74,73,2782.57,2784.08,27.12,B,right,0.75,10,0.62,15,0.88,8,0.58,18,-999,2.0,1,3,2,0.0,-1.0,-3.0,0.0,3.0,-1.0,110
37,1,1430.74,74,2811.54,2813.06,14.14,A,right,0.19,52,0.56,17,0.8,12,-999.0,-999,-999,99.0,3,1,2,0.0,0.0,0.0,0.0,0.0,0.0,110
37,1,1430.74,75,2827.53,2829.05,12.81,B,left,0.72,10,0.65,15,0.85,9,0.55,19,-999,2.0,2,1,3,-3.0,-1.0,0.0,0.0,0.0,0.0,110
37,Estimation2,2915.26,E1,2915.32,2916.84,6.0,A,right,0.75,11,0.65,15,0.85,-999,0.55,20,3,,3,2,1,,,,,,,110
37,Estimation2,2915.26,E2,2923.17,2924.69,5.11,C,left,0.75,8,0.65,15,0.85,-999,0.55,20,1,2.0,3,2,1,,,,,,,100
37,Estimation2,2915.26,E3,2930.14,2931.65,5.21,B,left,0.75,8,0.65,15,0.85,-999,0.55,18,3,,2,1,3,,,,,,,110
37,Estimation2,2915.26,E4,2937.2,2938.72,4.68,B,mid,0.75,10,0.65,15,0.85,-999,0.55,18,1,2.0,1,2,3,,,,,,,0
37,Estimation2,2915.26,E5,2943.73,2945.25,5.36,B,left,0.75,10,0.65,15,0.85,-999,0.55,19,3,,3,1,2,,,,,,,1
37,Estimation2,2915.26,E6,2950.95,2952.46,9.54,B,right,0.75,11,0.65,15,0.85,-999,0.55,19,1,2.0,1,3,2,,,,,,,1
37,Estimation2,2915.26,E7,2962.34,2963.86,6.57,A,left,0.75,11,0.65,15,0.85,-999,0.55,20,3,,1,3,2,,,,,,,0
37,Estimation2,2915.26,E8,2970.77,2972.29,5.68,C,right,0.75,11,0.65,15,0.85,6,0.55,20,1,2.0,1,2,3,,,,,,,0
37,Estimation2,2915.26,E9,2978.3,2979.82,8.49,A,right,0.75,11,0.65,15,0.85,6,0.55,20,2,1.0,3,1,2,,,,,,,101
37,Estimation2,2915.26,E10,2988.65,2990.17,6.5,C,mid,0.75,11,0.65,15,0.85,8,0.55,20,1,2.0,3,1,2,,,,,,,10
37,Estimation2,2915.26,E11,2997.01,2998.53,7.37,C,left,0.75,11,0.65,15,0.85,8,0.55,20,2,1.0,3,2,1,,,,,,,110
37,Estimation2,2915.26,E12,3006.24,3007.76,9.86,C,mid,0.75,11,0.65,15,0.85,7,0.55,20,1,2.0,3,1,2,,,,,,,110
37,Estimation2,2915.26,E13,3017.96,3019.47,6.67,A,left,0.75,11,0.65,15,0.85,7,0.55,20,2,1.0,1,2,3,,,,,,,101
37,Estimation2,2915.26,E14,3026.47,3027.99,4.8,C,mid,0.75,11,0.65,15,0.85,8,0.55,20,1,2.0,3,1,2,,,,,,,110
37,Estimation2,2915.26,E15,3033.12,3034.64,6.94,C,mid,0.75,11,0.65,15,0.85,8,0.55,20,2,1.0,1,3,2,,,,,,,101
37,2,3046.14,1,3046.22,3047.73,15.22,B,right,0.72,10,0.68,14,0.85,8,0.55,20,-999,2.0,1,3,2,-3.0,-1.0,3.0,-1.0,0.0,0.0,111
37,2,3046.14,2,3063.29,3064.81,13.82,C,right,0.72,11,0.62,14,0.85,8,0.55,20,-999,2.0,2,1,3,-3.0,0.0,-3.0,-1.0,0.0,0.0,11
37,2,3046.14,3,3078.97,3080.49,9.45,C,right,0.72,10,0.68,15,0.88,8,0.58,20,-999,2.0,2,1,3,-3.0,-1.0,3.0,0.0,3.0,0.0,100
37,2,3046.14,4,3090.29,3091.8,10.56,B,mid,0.75,10,0.62,15,0.73,9,0.6,14,-999,32.0,3,2,1,0.0,-1.0,-3.0,0.0,-3.0,0.0,0
37,2,3046.14,5,3102.7,3104.21,12.68,B,right,0.75,10,0.68,14,0.73,9,0.66,13,-999,32.0,2,3,1,0.0,-1.0,3.0,-1.0,0.0,0.0,111
37,2,3046.14,6,3117.23,3118.74,9.56,A,right,0.78,11,0.62,14,0.85,8,0.55,20,-999,2.0,3,2,1,3.0,0.0,-3.0,-1.0,0.0,0.0,0
37,2,3046.14,7,3128.64,3130.16,17.42,B,left,0.72,11,0.65,15,0.7,10,0.63,14,-999,31.0,2,1,3,-3.0,0.0,0.0,0.0,-3.0,-1.0,1
37,2,3046.14,8,3147.92,3149.43,14.63,B,mid,0.72,10,0.65,15,0.7,9,0.63,14,-999,31.0,3,2,1,-3.0,-1.0,0.0,0.0,3.0,-1.0,10
37,2,3046.14,9,3164.39,3165.91,21.84,C,mid,0.75,10,0.62,15,0.88,8,0.58,20,-999,1.0,3,1,2,0.0,-1.0,-3.0,0.0,3.0,0.0,110
37,2,3046.14,10,3188.09,3189.6,11.76,B,left,0.72,11,0.68,15,0.82,8,0.52,20,-999,2.0,3,1,2,-3.0,0.0,3.0,0.0,-3.0,0.0,0
37,2,3046.14,11,3201.7,3203.22,10.24,A,mid,0.75,11,0.65,14,0.73,10,0.63,13,-999,31.0,2,1,3,0.0,0.0,0.0,-1.0,-3.0,-1.0,110
37,2,3046.14,12,3213.8,3215.31,16.04,B,left,0.72,11,0.65,15,0.82,7,0.52,19,-999,2.0,3,1,2,-3.0,0.0,0.0,0.0,-3.0,-1.0,110
37,2,3046.14,13,3231.69,3233.21,7.64,A,left,0.72,11,0.62,15,0.7,10,0.6,14,-999,31.0,1,3,2,-3.0,0.0,-3.0,0.0,0.0,-1.0,0
37,2,3046.14,14,3241.19,3242.7,14.36,A,right,0.75,11,0.65,15,0.73,10,0.63,14,-999,31.0,3,2,1,0.0,0.0,0.0,0.0,0.0,-1.0,1
37,2,3046.14,15,3257.4,3258.92,7.46,C,left,0.27,37,0.47,21,0.86,11,-999.0,-999,-999,99.0,2,3,1,0.0,0.0,0.0,0.0,0.0,0.0,11
37,2,3046.14,16,3266.71,3268.23,11.17,C,mid,0.32,31,0.48,20,0.85,11,-999.0,-999,-999,99.0,1,3,2,0.0,0.0,0.0,0.0,0.0,0.0,10
37,2,3046.14,17,3279.73,3281.24,13.35,B,mid,0.75,10,0.65,14,0.73,9,0.63,13,-999,32.0,3,2,1,0.0,-1.0,0.0,-1.0,3.0,0.0,10
37,2,3046.14,18,3294.92,3296.44,20.37,A,right,0.78,10,0.62,15,0.76,9,0.6,14,-999,31.0,3,1,2,3.0,-1.0,-3.0,0.0,0.0,0.0,11
37,2,3046.14,19,3317.15,3318.66,24.16,A,mid,0.78,11,0.65,15,0.76,10,0.63,14,-999,32.0,2,3,1,3.0,0.0,0.0,0.0,-3.0,-1.0,101
37,2,3046.14,20,3343.17,3344.69,19.19,B,mid,0.72,11,0.68,14,0.7,10,0.66,13,-999,32.0,3,2,1,-3.0,0.0,3.0,-1.0,0.0,-1.0,10
37,2,3046.14,21,3364.22,3365.73,15.54,A,right,0.75,11,0.65,15,0.82,7,0.52,19,-999,1.0,3,2,1,0.0,0.0,0.0,0.0,-3.0,-1.0,111
37,2,3046.14,22,3381.61,3383.13,14.28,B,left,0.78,11,0.68,15,0.76,10,0.66,14,-999,31.0,3,1,2,3.0,0.0,3.0,0.0,0.0,0.0,10
37,2,3046.14,23,3397.75,3399.27,13.74,A,mid,0.72,11,0.62,15,0.7,10,0.6,14,-999,32.0,2,3,1,-3.0,0.0,-3.0,0.0,0.0,0.0,100
37,2,3046.14,24,3413.35,3414.87,13.21,B,mid,0.72,10,0.65,14,0.7,9,0.63,13,-999,31.0,1,2,3,-3.0,-1.0,0.0,-1.0,3.0,-1.0,11
37,2,3046.14,25,3428.41,3429.93,31.93,A,mid,0.78,10,0.68,15,0.76,9,0.66,14,-999,31.0,2,3,1,3.0,-1.0,3.0,0.0,0.0,0.0,1
37,2,3046.14,26,3462.2,3463.72,21.4,A,left,0.78,10,0.62,14,0.76,9,0.6,13,-999,32.0,1,3,2,3.0,-1.0,-3.0,-1.0,0.0,-1.0,0
37,2,3046.14,27,3485.46,3486.98,9.87,C,mid,0.72,11,0.65,15,0.82,7,0.52,19,-999,1.0,3,1,2,-3.0,0.0,0.0,0.0,-3.0,-1.0,100
37,2,3046.14,28,3497.19,3498.71,13.7,A,left,0.78,11,0.68,15,0.82,8,0.52,20,-999,1.0,1,2,3,3.0,0.0,3.0,0.0,-3.0,0.0,0
37,2,3046.14,29,3512.73,3514.25,6.69,C,right,0.27,37,0.61,16,0.89,11,-999.0,-999,-999,99.0,2,1,3,0.0,0.0,0.0,0.0,0.0,0.0,10
37,2,3046.14,30,3521.28,3522.8,11.79,A,left,0.72,11,0.62,15,0.7,10,0.6,14,-999,32.0,1,3,2,-3.0,0.0,-3.0,0.0,3.0,-1.0,111
37,2,3046.14,31,3534.93,3536.44,14.59,C,right,0.75,10,0.62,15,0.88,7,0.58,19,-999,2.0,1,2,3,0.0,-1.0,-3.0,0.0,3.0,-1.0,10
37,2,3046.14,32,3551.37,3552.89,12.13,A,right,0.75,11,0.65,14,0.73,10,0.63,13,-999,31.0,3,2,1,0.0,0.0,0.0,-1.0,0.0,0.0,100
37,2,3046.14,33,3565.35,3566.87,13.37,B,mid,0.72,10,0.65,15,0.7,9,0.63,14,-999,31.0,1,2,3,-3.0,-1.0,0.0,0.0,3.0,-1.0,101
37,2,3046.14,34,3580.58,3582.1,4.55,C,mid,0.32,31,0.6,16,0.78,12,-999.0,-999,-999,99.0,1,3,2,0.0,0.0,0.0,0.0,0.0,0.0,11
37,2,3046.14,35,3586.99,3588.51,13.04,C,mid,0.19,52,0.56,17,0.8,12,-999.0,-999,-999,99.0,1,3,2,0.0,0.0,0.0,0.0,0.0,0.0,11
37,2,3046.14,36,3601.89,3603.41,13.56,C,mid,0.75,10,0.68,15,0.88,8,0.58,20,-999,1.0,3,1,2,0.0,-1.0,3.0,0.0,3.0,0.0,111
37,2,3046.14,37,3617.3,3618.82,16.73,A,left,0.78,10,0.62,15,0.76,9,0.6,14,-999,32.0,1,3,2,3.0,-1.0,-3.0,0.0,-3.0,-1.0,111
37,2,3046.14,38,3645.21,3646.73,17.03,A,mid,0.31,32,0.38,26,0.85,11,-999.0,-999,-999,99.0,2,1,3,0.0,0.0,0.0,0.0,0.0,0.0,10
37,2,3046.14,39,3664.09,3665.6,6.9,B,mid,0.72,10,0.62,15,0.7,9,0.6,14,-999,32.0,1,2,3,-3.0,-1.0,-3.0,0.0,-3.0,-1.0,0
37,2,3046.14,40,3672.83,3674.35,11.87,A,right,0.78,11,0.65,14,0.82,7,0.52,19,-999,2.0,3,1,2,3.0,0.0,0.0,-1.0,-3.0,-1.0,0
37,2,3046.14,41,3686.55,3688.06,11.87,C,right,0.75,11,0.62,14,0.88,8,0.58,20,-999,2.0,1,2,3,0.0,0.0,-3.0,-1.0,3.0,0.0,100
37,2,3046.14,42,3700.28,3701.79,29.35,A,mid,0.78,11,0.68,15,0.88,7,0.58,19,-999,1.0,2,1,3,3.0,0.0,3.0,0.0,3.0,-1.0,101
37,2,3046.14,43,3731.48,3733.0,13.23,A,left,0.78,10,0.62,15,0.85,7,0.55,19,-999,1.0,1,2,3,3.0,-1.0,-3.0,0.0,0.0,-1.0,100
37,2,3046.14,44,3746.58,3748.09,11.45,C,left,0.72,11,0.62,14,0.85,8,0.55,20,-999,2.0,2,3,1,-3.0,0.0,-3.0,-1.0,0.0,0.0,11
37,2,3046.14,45,3759.89,3761.41,13.55,C,left,0.78,10,0.68,15,0.88,8,0.58,20,-999,1.0,3,2,1,3.0,-1.0,3.0,0.0,3.0,0.0,11
37,2,3046.14,46,3775.29,3776.8,15.26,B,left,0.75,10,0.68,14,0.73,9,0.66,13,-999,31.0,2,1,3,0.0,-1.0,3.0,-1.0,0.0,-1.0,10
37,2,3046.14,47,3792.4,3793.91,9.81,B,right,0.72,10,0.68,14,0.7,9,0.66,13,-999,31.0,1,3,2,-3.0,-1.0,3.0,-1.0,-3.0,0.0,10
37,2,3046.14,48,3804.06,3805.58,14.07,A,mid,0.78,11,0.62,15,0.76,10,0.6,14,-999,32.0,2,1,3,3.0,0.0,-3.0,0.0,3.0,0.0,110
37,2,3046.14,49,3819.99,3821.5,17.02,A,left,0.78,10,0.68,15,0.85,7,0.55,19,-999,1.0,1,3,2,3.0,-1.0,3.0,0.0,0.0,-1.0,0
37,2,3046.14,50,3838.86,3840.38,17.72,C,right,0.72,10,0.65,15,0.88,7,0.58,19,-999,2.0,1,2,3,-3.0,-1.0,0.0,0.0,3.0,-1.0,110
37,2,3046.14,51,3858.44,3859.96,6.38,C,left,0.29,34,0.42,23,0.72,13,-999.0,-999,-999,99.0,2,3,1,0.0,0.0,0.0,0.0,0.0,0.0,111
37,2,3046.14,52,3866.67,3868.19,13.31,A,mid,0.78,10,0.65,15,0.76,9,0.63,14,-999,32.0,2,1,3,3.0,-1.0,0.0,0.0,-3.0,-1.0,101
37,2,3046.14,53,3881.83,3883.35,8.61,A,right,0.78,11,0.62,14,0.76,10,0.6,13,-999,31.0,3,2,1,3.0,0.0,-3.0,-1.0,-3.0,0.0,100
37,2,3046.14,54,3892.3,3893.81,13.43,B,mid,0.72,11,0.68,15,0.82,7,0.52,19,-999,1.0,1,2,3,-3.0,0.0,3.0,0.0,-3.0,-1.0,111
37,2,3046.14,55,3907.66,3909.18,14.87,C,right,0.72,10,0.62,14,0.88,8,0.58,20,-999,2.0,1,2,3,-3.0,-1.0,-3.0,-1.0,3.0,0.0,1
37,2,3046.14,56,3924.39,3925.9,7.72,C,left,0.75,11,0.65,14,0.85,7,0.55,19,-999,2.0,3,2,1,0.0,0.0,0.0,-1.0,0.0,-1.0,0
37,2,3046.14,57,3933.97,3935.48,9.18,A,mid,0.78,11,0.65,15,0.76,10,0.63,14,-999,32.0,2,3,1,3.0,0.0,0.0,0.0,0.0,0.0,10
37,2,3046.14,58,3945.0,3946.51,13.21,A,right,0.24,41,0.37,27,0.76,13,-999.0,-999,-999,99.0,3,1,2,0.0,0.0,0.0,0.0,0.0,0.0,111
37,2,3046.14,59,3960.06,3961.58,16.09,A,right,0.78,11,0.65,14,0.82,7,0.52,19,-999,1.0,3,2,1,3.0,0.0,0.0,-1.0,-3.0,-1.0,110
37,2,3046.14,60,3978.0,3979.52,14.34,A,left,0.75,10,0.68,14,0.85,7,0.55,19,-999,2.0,1,2,3,0.0,-1.0,3.0,-1.0,0.0,-1.0,100
37,2,3046.14,61,3994.2,3995.72,7.35,A,left,0.75,11,0.65,15,0.73,10,0.63,14,-999,31.0,1,2,3,0.0,0.0,0.0,0.0,0.0,0.0,0
37,2,3046.14,62,4003.4,4004.91,7.93,A,left,0.72,11,0.62,14,0.7,10,0.6,13,-999,32.0,1,2,3,-3.0,0.0,-3.0,-1.0,0.0,0.0,10
37,2,3046.14,63,4013.18,4014.69,10.46,B,left,0.72,10,0.65,15,0.85,8,0.55,20,-999,2.0,3,1,2,-3.0,-1.0,0.0,0.0,0.0,0.0,0
37,2,3046.14,64,4025.49,4027.01,11.45,A,mid,0.78,11,0.62,14,0.85,7,0.55,19,-999,1.0,2,3,1,3.0,0.0,-3.0,-1.0,0.0,-1.0,110
37,2,3046.14,65,4038.79,4040.3,12.52,C,left,0.16,62,0.46,21,0.87,11,-999.0,-999,-999,99.0,3,2,1,0.0,0.0,0.0,0.0,0.0,0.0,10
37,2,3046.14,66,4053.16,4054.68,7.05,C,left,0.75,11,0.65,15,0.85,8,0.55,20,-999,1.0,3,2,1,0.0,0.0,0.0,0.0,0.0,0.0,110
37,2,3046.14,67,4062.08,4063.59,14.4,C,mid,0.72,11,0.68,14,0.88,8,0.58,20,-999,2.0,3,1,2,-3.0,0.0,3.0,-1.0,3.0,0.0,10
37,2,3046.14,68,4078.32,4079.84,8.36,A,mid,0.78,11,0.65,14,0.82,8,0.52,20,-999,1.0,2,1,3,3.0,0.0,0.0,-1.0,-3.0,0.0,1
37,2,3046.14,69,4088.54,4090.05,7.98,A,right,0.19,52,0.59,16,0.81,12,-999.0,-999,-999,99.0,3,2,1,0.0,0.0,0.0,0.0,0.0,0.0,110
37,2,3046.14,70,4098.37,4099.88,12.36,A,left,0.75,10,0.65,15,0.73,9,0.63,14,-999,31.0,1,3,2,0.0,-1.0,0.0,0.0,3.0,-1.0,110
37,2,3046.14,71,4112.58,4114.09,8.59,B,mid,0.72,11,0.65,14,0.7,10,0.63,13,-999,32.0,3,2,1,-3.0,0.0,0.0,-1.0,3.0,0.0,110
37,2,3046.14,72,4123.03,4124.54,8.77,B,mid,0.72,11,0.68,15,0.82,7,0.52,19,-999,1.0,3,2,1,-3.0,0.0,3.0,0.0,-3.0,-1.0,11
37,2,3046.14,73,4133.65,4135.17,5.32,C,mid,0.75,11,0.62,15,0.88,7,0.58,19,-999,1.0,1,3,2,0.0,0.0,-3.0,0.0,3.0,-1.0,111
37,2,3046.14,74,4140.84,4142.35,8.01,C,mid,0.28,35,0.67,14,0.78,12,-999.0,-999,-999,99.0,3,1,2,0.0,0.0,0.0,0.0,0.0,0.0,100
37,2,3046.14,75,4150.7,4152.22,10.15,B,mid,0.78,10,0.68,14,0.76,9,0.66,13,-999,32.0,3,2,1,3.0,-1.0,3.0,-1.0,3.0,-1.0,11
37,Estimation3,4205.9,E1,4205.98,4207.5,5.04,A,left,0.75,11,0.65,15,0.85,-999,0.55,20,3,,1,2,3,,,,,,,110
37,Estimation3,4205.9,E2,4212.88,4214.4,4.0,C,right,0.75,8,0.65,15,0.85,-999,0.55,20,1,2.0,1,2,3,,,,,,,0
37,Estimation3,4205.9,E3,4218.73,4220.24,6.59,B,mid,0.75,8,0.65,15,0.85,-999,0.55,18,3,,3,2,1,,,,,,,111
37,Estimation3,4205.9,E4,4227.18,4228.69,11.72,B,left,0.75,10,0.65,15,0.85,-999,0.55,18,1,2.0,3,1,2,,,,,,,101
37,Estimation3,4205.9,E5,4240.75,4242.27,9.06,B,mid,0.75,10,0.65,15,0.85,-999,0.55,19,3,,1,2,3,,,,,,,11
37,Estimation3,4205.9,E6,4251.67,4253.18,9.44,C,left,0.75,11,0.65,15,0.85,-999,0.55,19,1,2.0,3,2,1,,,,,,,0
37,Estimation3,4205.9,E7,4262.96,4264.48,4.83,A,left,0.75,11,0.65,15,0.85,-999,0.55,19,3,,1,3,2,,,,,,,0
37,Estimation3,4205.9,E8,4269.65,4271.16,4.4,C,left,0.75,11,0.65,15,0.85,6,0.55,19,1,2.0,2,3,1,,,,,,,10
37,Estimation3,4205.9,E9,4275.91,4277.43,5.45,A,mid,0.75,11,0.65,15,0.85,6,0.55,19,2,1.0,2,1,3,,,,,,,11
37,Estimation3,4205.9,E10,4283.21,4284.72,3.1,C,mid,0.75,11,0.65,15,0.85,8,0.55,19,1,2.0,1,3,2,,,,,,,100
37,Estimation3,4205.9,E11,4288.17,4289.69,8.72,C,left,0.75,11,0.65,15,0.85,8,0.55,19,2,1.0,3,2,1,,,,,,,101
37,Estimation3,4205.9,E12,4298.75,4300.27,4.72,C,right,0.75,11,0.65,15,0.85,7,0.55,19,1,2.0,1,2,3,,,,,,,101
37,Estimation3,4205.9,E13,4305.33,4306.85,6.47,A,right,0.75,11,0.65,15,0.85,7,0.55,19,2,1.0,3,2,1,,,,,,,10
37,Estimation3,4205.9,E14,4313.66,4315.18,8.16,B,right,0.75,11,0.65,15,0.85,8,0.55,19,1,2.0,2,3,1,,,,,,,111
37,Estimation3,4205.9,E15,4323.68,4325.19,4.12,C,left,0.75,11,0.65,15,0.85,8,0.55,19,2,1.0,3,2,1,,,,,,,10
37,3,4332.19,1,4332.26,4333.78,11.73,A,left,0.78,11,0.65,15,0.76,10,0.63,14,-999,32.0,1,3,2,3.0,0.0,0.0,0.0,-3.0,-1.0,1
37,3,4332.19,2,4345.84,4347.35,22.37,A,right,0.78,10,0.65,15,0.76,9,0.63,14,-999,32.0,3,1,2,3.0,-1.0,0.0,0.0,-3.0,-1.0,10
37,3,4332.19,3,4370.06,4371.58,21.03,A,left,0.78,11,0.62,14,0.85,7,0.55,18,-999,1.0,1,2,3,3.0,0.0,-3.0,-1.0,0.0,-1.0,11
37,3,4332.19,4,4392.96,4394.47,5.32,C,mid,0.32,31,0.6,16,0.78,12,-999.0,-999,-999,99.0,1,3,2,0.0,0.0,0.0,0.0,0.0,0.0,10
37,3,4332.19,5,4400.14,4401.65,6.27,A,right,0.72,11,0.62,15,0.7,10,0.6,14,-999,32.0,3,1,2,-3.0,0.0,-3.0,0.0,3.0,-1.0,1
37,3,4332.19,6,4408.27,4409.78,8.83,A,mid,0.78,11,0.68,15,0.82,8,0.52,19,-999,1.0,2,3,1,3.0,0.0,3.0,0.0,-3.0,0.0,101
37,3,4332.19,7,4418.96,4420.48,12.73,A,right,0.78,10,0.68,15,0.76,9,0.66,14,-999,31.0,3,2,1,3.0,-1.0,3.0,0.0,0.0,0.0,110
37,3,4332.19,8,4433.54,4435.06,9.59,A,right,0.78,11,0.65,14,0.82,8,0.52,19,-999,1.0,3,2,1,3.0,0.0,0.0,-1.0,-3.0,0.0,111
37,3,4332.19,9,4444.99,4446.51,9.56,A,left,0.78,10,0.68,15,0.85,7,0.55,18,-999,1.0,1,2,3,3.0,-1.0,3.0,0.0,0.0,-1.0,1
37,3,4332.19,10,4456.4,4457.92,10.67,A,left,0.78,11,0.62,14,0.76,10,0.6,13,-999,31.0,1,2,3,3.0,0.0,-3.0,-1.0,-3.0,0.0,0
37,3,4332.19,11,4468.93,4470.45,6.88,A,mid,0.72,11,0.62,15,0.7,10,0.6,14,-999,32.0,2,3,1,-3.0,0.0,-3.0,0.0,0.0,0.0,111
37,3,4332.19,12,4477.66,4479.18,7.29,A,left,0.72,10,0.62,15,0.7,9,0.6,14,-999,32.0,1,3,2,-3.0,-1.0,-3.0,0.0,-3.0,-1.0,11
37,3,4332.19,13,4486.81,4488.33,14.22,A,mid,0.75,11,0.65,14,0.73,10,0.63,13,-999,31.0,2,1,3,0.0,0.0,0.0,-1.0,0.0,0.0,11
37,3,4332.19,14,4502.89,4504.4,8.61,A,left,0.78,10,0.62,15,0.76,9,0.6,14,-999,32.0,1,2,3,3.0,-1.0,-3.0,0.0,-3.0,-1.0,110
37,3,4332.19,15,4513.35,4514.87,9.07,C,mid,0.78,11,0.68,15,0.88,7,0.58,18,-999,1.0,3,1,2,3.0,0.0,3.0,0.0,3.0,-1.0,10
37,3,4332.19,16,4524.28,4525.8,5.55,A,mid,0.75,11,0.62,14,0.88,8,0.58,19,-999,2.0,2,1,3,0.0,0.0,-3.0,-1.0,3.0,0.0,100
37,3,4332.19,17,4531.68,4533.2,9.2,C,right,0.27,37,0.61,16,0.89,11,-999.0,-999,-999,99.0,1,2,3,0.0,0.0,0.0,0.0,0.0,0.0,11
37,3,4332.19,18,4542.73,4544.24,9.83,A,left,0.78,11,0.65,15,0.76,10,0.63,14,-999,32.0,1,3,2,3.0,0.0,0.0,0.0,0.0,0.0,111
37,3,4332.19,19,4554.41,4555.92,3.18,A,mid,0.78,10,0.62,14,0.76,9,0.6,13,-999,32.0,2,3,1,3.0,-1.0,-3.0,-1.0,0.0,-1.0,11
37,3,4332.19,20,4559.44,4560.95,6.83,A,mid,0.78,10,0.68,14,0.76,9,0.66,13,-999,32.0,2,3,1,3.0,-1.0,3.0,-1.0,3.0,-1.0,10
37,3,4332.19,21,4568.12,4569.63,9.74,C,left,0.27,37,0.47,21,0.86,11,-999.0,-999,-999,99.0,3,2,1,0.0,0.0,0.0,0.0,0.0,0.0,101
37,3,4332.19,22,4579.71,4581.23,11.42,C,left,0.72,10,0.62,14,0.88,8,0.58,19,-999,2.0,3,2,1,-3.0,-1.0,-3.0,-1.0,3.0,0.0,111
37,3,4332.19,23,4592.99,4594.51,9.24,A,right,0.72,11,0.62,14,0.7,10,0.6,13,-999,32.0,3,1,2,-3.0,0.0,-3.0,-1.0,0.0,0.0,10
37,3,4332.19,24,4604.09,4605.61,9.36,A,mid,0.75,11,0.65,15,0.73,10,0.63,14,-999,31.0,2,1,3,0.0,0.0,0.0,0.0,0.0,0.0,110
37,3,4332.19,25,4615.3,4616.82,13.19,B,right,0.72,10,0.65,14,0.7,9,0.63,13,-999,31.0,1,3,2,-3.0,-1.0,0.0,-1.0,3.0,-1.0,0
37,3,4332.19,26,4630.35,4631.86,6.93,C,left,0.19,52,0.59,16,0.81,12,-999.0,-999,-999,99.0,2,3,1,0.0,0.0,0.0,0.0,0.0,0.0,11
37,3,4332.19,27,4639.13,4640.64,8.35,A,left,0.75,10,0.62,15,0.73,9,0.6,14,-999,32.0,1,2,3,0.0,-1.0,-3.0,0.0,-3.0,0.0,11
37,3,4332.19,28,4649.33,4650.84,11.16,B,left,0.72,11,0.65,15,0.82,7,0.52,18,-999,1.0,3,1,2,-3.0,0.0,0.0,0.0,-3.0,-1.0,110
37,3,4332.19,29,4662.34,4663.85,10.28,B,left,0.72,10,0.68,14,0.7,9,0.66,13,-999,31.0,3,1,2,-3.0,-1.0,3.0,-1.0,-3.0,0.0,10
37,3,4332.19,30,4674.48,4676.0,5.21,B,right,0.72,11,0.62,15,0.7,10,0.6,14,-999,31.0,1,3,2,-3.0,0.0,-3.0,0.0,0.0,-1.0,1
37,3,4332.19,31,4681.55,4683.06,11.66,B,left,0.72,10,0.65,15,0.7,9,0.63,14,-999,31.0,2,1,3,-3.0,-1.0,0.0,0.0,3.0,-1.0,11
37,3,4332.19,32,4695.06,4696.58,7.57,A,left,0.78,11,0.65,14,0.82,7,0.52,18,-999,2.0,1,3,2,3.0,0.0,0.0,-1.0,-3.0,-1.0,110
37,3,4332.19,33,4704.49,4706.01,3.5,C,right,0.32,31,0.48,20,0.85,11,-999.0,-999,-999,99.0,2,1,3,0.0,0.0,0.0,0.0,0.0,0.0,100
37,3,4332.19,34,4709.84,4711.36,6.19,A,mid,0.78,11,0.68,15,0.76,10,0.66,14,-999,31.0,2,3,1,3.0,0.0,3.0,0.0,0.0,0.0,10
37,3,4332.19,35,4717.89,4719.4,7.79,A,right,0.75,10,0.65,14,0.73,9,0.63,13,-999,32.0,3,2,1,0.0,-1.0,0.0,-1.0,3.0,0.0,1
37,3,4332.19,36,4727.53,4729.05,4.17,A,mid,0.72,11,0.65,15,0.7,10,0.63,14,-999,31.0,2,1,3,-3.0,0.0,0.0,0.0,-3.0,-1.0,10
37,3,4332.19,37,4733.55,4735.06,10.51,A,right,0.78,10,0.62,15,0.76,9,0.6,14,-999,31.0,3,1,2,3.0,-1.0,-3.0,0.0,0.0,0.0,100
37,3,4332.19,38,4758.34,4759.86,9.07,B,mid,0.72,10,0.65,15,0.7,9,0.63,14,-999,31.0,1,2,3,-3.0,-1.0,0.0,0.0,3.0,-1.0,100
37,3,4332.19,39,4769.27,4770.79,9.44,B,right,0.72,11,0.68,14,0.7,10,0.66,13,-999,32.0,2,3,1,-3.0,0.0,3.0,-1.0,0.0,-1.0,0
37,3,4332.19,40,4780.57,4782.08,11.24,B,mid,0.75,10,0.65,15,0.73,9,0.63,14,-999,31.0,3,2,1,0.0,-1.0,0.0,0.0,3.0,-1.0,11
37,3,4332.19,41,4793.66,4795.18,8.5,C,mid,0.24,41,0.37,27,0.76,13,-999.0,-999,-999,99.0,1,3,2,0.0,0.0,0.0,0.0,0.0,0.0,0
37,3,4332.19,42,4804.03,4805.54,14.82,B,left,0.72,10,0.68,15,0.88,8,0.58,19,-999,2.0,3,1,2,-3.0,-1.0,3.0,0.0,3.0,0.0,110
37,3,4332.19,43,4820.7,4822.22,7.09,A,left,0.75,11,0.65,14,0.73,10,0.63,13,-999,31.0,1,3,2,0.0,0.0,0.0,-1.0,-3.0,-1.0,100
37,3,4332.19,44,4829.65,4831.17,9.28,B,right,0.75,10,0.68,14,0.85,7,0.55,18,-999,2.0,1,3,2,0.0,-1.0,3.0,-1.0,0.0,-1.0,111
37,3,4332.19,45,4840.78,4842.3,10.48,A,mid,0.19,52,0.56,17,0.8,12,-999.0,-999,-999,99.0,2,3,1,0.0,0.0,0.0,0.0,0.0,0.0,111
37,3,4332.19,46,4853.11,4854.63,6.57,B,mid,0.75,10,0.68,14,0.73,9,0.66,13,-999,32.0,3,2,1,0.0,-1.0,3.0,-1.0,0.0,0.0,101
37,3,4332.19,47,4861.61,4863.12,9.03,C,left,0.75,11,0.65,15,0.82,7,0.52,18,-999,1.0,3,2,1,0.0,0.0,0.0,0.0,-3.0,-1.0,1
37,3,4332.19,48,4872.49,4874.0,9.44,B,left,0.78,10,0.68,15,0.88,8,0.58,19,-999,1.0,3,1,2,3.0,-1.0,3.0,0.0,3.0,0.0,100
37,3,4332.19,49,4883.78,4885.3,8.85,A,mid,0.75,11,0.65,14,0.85,7,0.55,18,-999,2.0,2,1,3,0.0,0.0,0.0,-1.0,0.0,-1.0,0
37,3,4332.19,50,4894.5,4896.01,4.66,C,left,0.75,11,0.62,15,0.88,7,0.58,18,-999,1.0,2,3,1,0.0,0.0,-3.0,0.0,3.0,-1.0,111
37,3,4332.19,51,4901.01,4902.53,4.86,C,left,0.16,62,0.46,21,0.87,11,-999.0,-999,-999,99.0,3,2,1,0.0,0.0,0.0,0.0,0.0,0.0,111
37,3,4332.19,52,4907.73,4909.24,13.71,B,left,0.72,11,0.65,15,0.82,7,0.52,18,-999,2.0,2,1,3,-3.0,0.0,0.0,0.0,-3.0,-1.0,101
37,3,4332.19,53,4923.29,4924.8,5.46,A,mid,0.78,11,0.62,14,0.85,8,0.55,19,-999,2.0,2,3,1,3.0,0.0,-3.0,-1.0,0.0,0.0,101
37,3,4332.19,54,4930.6,4932.12,7.42,A,left,0.78,11,0.65,14,0.82,7,0.52,18,-999,1.0,1,2,3,3.0,0.0,0.0,-1.0,-3.0,-1.0,111
37,3,4332.19,55,4939.87,4941.38,9.06,B,left,0.72,10,0.65,15,0.85,8,0.55,19,-999,2.0,3,1,2,-3.0,-1.0,0.0,0.0,0.0,0.0,100
37,3,4332.19,56,4950.78,4952.3,5.06,C,mid,0.75,11,0.65,15,0.85,8,0.55,19,-999,1.0,1,3,2,0.0,0.0,0.0,0.0,0.0,0.0,101
37,3,4332.19,57,4957.69,4959.21,10.24,C,mid,0.72,10,0.65,15,0.88,7,0.58,18,-999,2.0,1,3,2,-3.0,-1.0,0.0,0.0,3.0,-1.0,100
37,3,4332.19,58,4969.79,4971.31,4.9,C,left,0.28,35,0.67,14,0.78,12,-999.0,-999,-999,99.0,2,3,1,0.0,0.0,0.0,0.0,0.0,0.0,101
37,3,4332.19,59,4976.54,4978.05,12.96,B,right,0.72,11,0.68,14,0.88,8,0.58,19,-999,2.0,1,3,2,-3.0,0.0,3.0,-1.0,3.0,0.0,111
37,3,4332.19,60,4991.35,4992.87,6.89,A,mid,0.72,11,0.62,14,0.85,8,0.55,19,-999,2.0,2,3,1,-3.0,0.0,-3.0,-1.0,0.0,0.0,10
37,3,4332.19,61,5000.1,5001.61,7.47,B,mid,0.72,10,0.68,14,0.85,8,0.55,19,-999,2.0,3,2,1,-3.0,-1.0,3.0,-1.0,0.0,0.0,0
37,3,4332.19,62,5009.41,5010.93,3.58,A,mid,0.72,11,0.65,14,0.7,10,0.63,13,-999,32.0,2,3,1,-3.0,0.0,0.0,-1.0,3.0,0.0,111
37,3,4332.19,63,5014.84,5016.36,6.29,C,left,0.75,10,0.68,15,0.88,8,0.58,19,-999,1.0,2,3,1,0.0,-1.0,3.0,0.0,3.0,0.0,10
37,3,4332.19,64,5022.99,5024.51,4.86,A,left,0.78,10,0.62,15,0.85,7,0.55,18,-999,1.0,1,3,2,3.0,-1.0,-3.0,0.0,0.0,-1.0,11
37,3,4332.19,65,5029.7,5031.22,10.25,A,left,0.78,11,0.62,15,0.76,10,0.6,14,-999,32.0,1,3,2,3.0,0.0,-3.0,0.0,3.0,0.0,0
37,3,4332.19,66,5041.8,5043.32,4.81,A,mid,0.75,11,0.65,15,0.73,10,0.63,14,-999,31.0,2,1,3,0.0,0.0,0.0,0.0,0.0,-1.0,110
37,3,4332.19,67,5048.47,5049.98,6.75,B,left,0.72,11,0.68,15,0.82,8,0.52,19,-999,2.0,2,1,3,-3.0,0.0,3.0,0.0,-3.0,0.0,111
37,3,4332.19,68,5057.08,5058.6,8.15,B,left,0.72,11,0.68,15,0.82,7,0.52,18,-999,1.0,2,1,3,-3.0,0.0,3.0,0.0,-3.0,-1.0,111
37,3,4332.19,69,5067.09,5068.61,10.39,B,left,0.75,10,0.68,14,0.73,9,0.66,13,-999,31.0,3,1,2,0.0,-1.0,3.0,-1.0,0.0,-1.0,0
37,3,4332.19,70,5079.34,5080.86,8.64,C,left,0.31,32,0.38,26,0.85,11,-999.0,-999,-999,99.0,2,3,1,0.0,0.0,0.0,0.0,0.0,0.0,10
37,3,4332.19,71,5089.84,5091.35,6.22,C,left,0.75,10,0.62,15,0.88,8,0.58,19,-999,1.0,3,2,1,0.0,-1.0,-3.0,0.0,3.0,0.0,11
37,3,4332.19,72,5097.92,5099.43,4.51,A,left,0.72,11,0.62,14,0.85,8,0.55,19,-999,2.0,1,2,3,-3.0,0.0,-3.0,-1.0,0.0,0.0,1
37,3,4332.19,73,5104.28,5105.8,3.25,C,right,0.29,34,0.42,23,0.72,13,-999.0,-999,-999,99.0,2,1,3,0.0,0.0,0.0,0.0,0.0,0.0,0
37,3,4332.19,74,5109.38,5110.9,5.35,A,right,0.75,10,0.62,15,0.88,7,0.58,18,-999,2.0,3,2,1,0.0,-1.0,-3.0,0.0,3.0,-1.0,11
37,3,4332.19,75,5116.58,5118.09,6.97,B,left,0.72,11,0.68,15,0.82,7,0.52,18,-999,1.0,2,1,3,-3.0,0.0,3.0,0.0,-3.0,-1.0,1
