subject,block,block_onset,trial,fixation_cross_onset,trial_onset,rt,choice,key,pA,mA,pB,mB,pCA,mCA,pCB,mCB,missing,condition,position_A,position_B,position_C,noise_Ap,noise_Am,noise_Bp,noise_Bm,noise_Cp,noise_Cm,attribute_positions
19,Practice,1454.76,P1,1454.84,1456.36,8.29,B,left,0.78,7,0.62,17,0.85,3,0.55,24,-999,2.0,3,1,2,3.0,-2.0,-3.0,2.0,0.0,-1.0,1
19,Practice,1454.76,P2,1464.99,1466.51,8.53,B,mid,0.72,7,0.62,16,0.88,5,0.58,26,-999,2.0,1,2,3,-3.0,-2.0,-3.0,1.0,3.0,1.0,10
19,Practice,1454.76,P3,1475.37,1476.89,10.53,B,right,0.75,11,0.68,13,0.85,4,0.55,25,-999,1.0,2,3,1,0.0,2.0,3.0,-2.0,0.0,0.0,110
19,Practice,1454.76,P4,1487.77,1489.28,8.07,B,left,0.75,9,0.65,15,0.88,5,0.58,26,-999,1.0,3,1,2,0.0,0.0,0.0,0.0,3.0,1.0,100
19,Practice,1454.76,P5,1497.7,1499.21,8.59,C,mid,0.72,11,0.62,13,0.85,6,0.55,27,-999,1.0,1,3,2,-3.0,2.0,-3.0,-2.0,0.0,2.0,101
19,Practice,1454.76,P6,1508.14,1509.66,11.94,C,left,0.78,7,0.62,13,0.82,6,0.52,27,-999,2.0,2,3,1,3.0,-2.0,-3.0,-2.0,-3.0,2.0,110
19,Practice,1454.76,P7,1521.94,1523.45,5.62,A,mid,0.75,7,0.65,17,0.85,5,0.55,26,-999,2.0,2,1,3,0.0,-2.0,0.0,2.0,0.0,1.0,111
19,Practice,1454.76,P8,1529.42,1530.94,4.58,B,left,0.72,8,0.68,15,0.82,6,0.52,27,-999,2.0,3,1,2,-3.0,-1.0,3.0,0.0,-3.0,2.0,110
19,Practice,1454.76,P9,1535.85,1537.37,8.0,A,right,0.78,8,0.62,16,0.88,5,0.58,26,-999,1.0,3,1,2,3.0,-1.0,-3.0,1.0,3.0,1.0,1
19,Practice,1454.76,P10,1545.7,1547.21,6.61,A,left,0.75,10,0.65,16,0.82,2,0.52,23,-999,2.0,1,2,3,0.0,1.0,0.0,1.0,-3.0,-2.0,101
19,Practice,1454.76,P11,1554.16,1555.68,4.86,B,right,0.72,8,0.65,15,0.85,5,0.55,26,-999,2.0,2,3,1,-3.0,-1.0,0.0,0.0,0.0,1.0,0
19,Practice,1454.76,P12,1560.88,1562.39,4.92,B,right,0.72,8,0.68,15,0.85,5,0.55,26,-999,1.0,2,3,1,-3.0,-1.0,3.0,0.0,0.0,1.0,101
19,Practice,1454.76,P13,1567.67,1569.19,4.38,A,mid,0.78,11,0.68,16,0.88,5,0.58,26,-999,1.0,2,1,3,3.0,2.0,3.0,1.0,3.0,1.0,111
19,Practice,1454.76,P14,1573.91,1575.42,3.94,A,right,0.72,11,0.62,17,0.82,3,0.52,24,-999,2.0,3,2,1,-3.0,2.0,-3.0,2.0,-3.0,-1.0,0
19,Practice,1454.76,P15,1579.7,1581.22,8.77,C,left,0.78,7,0.68,14,0.88,5,0.58,26,-999,2.0,2,3,1,3.0,-2.0,3.0,-1.0,3.0,1.0,10
19,Practice,1454.76,P16,1590.33,1591.85,7.98,B,left,0.78,7,0.65,13,0.82,2,0.52,23,-999,2.0,2,1,3,3.0,-2.0,0.0,-2.0,-3.0,-2.0,1
19,Practice,1454.76,P17,1600.18,1601.7,6.18,B,mid,0.72,10,0.65,13,0.82,5,0.52,26,-999,2.0,3,2,1,-3.0,1.0,0.0,-2.0,-3.0,1.0,110
19,Practice,1454.76,P18,1608.21,1609.73,5.31,B,left,0.78,7,0.68,13,0.88,2,0.58,23,-999,2.0,3,1,2,3.0,-2.0,3.0,-2.0,3.0,-2.0,10
19,Practice,1454.76,P19,1615.38,1616.89,7.25,B,left,0.78,11,0.62,15,0.85,4,0.55,25,-999,1.0,3,1,2,3.0,2.0,-3.0,0.0,0.0,0.0,110
19,Practice,1454.76,P20,1624.47,1625.99,7.34,B,right,0.72,7,0.65,14,0.88,4,0.58,25,-999,1.0,1,3,2,-3.0,-2.0,0.0,-1.0,3.0,0.0,11
19,Practice,1454.76,P21,1633.67,1635.19,4.75,B,left,0.78,9,0.65,16,0.85,2,0.55,23,-999,1.0,3,1,2,3.0,0.0,0.0,1.0,0.0,-2.0,0
19,Practice,1454.76,P22,1640.28,1641.8,6.51,B,right,0.72,9,0.62,15,0.85,2,0.55,23,-999,1.0,1,3,2,-3.0,0.0,-3.0,0.0,0.0,-2.0,10
19,Practice,1454.76,P23,1648.66,1650.18,7.35,B,left,0.72,7,0.65,13,0.88,3,0.58,24,-999,1.0,3,1,2,-3.0,-2.0,0.0,-2.0,3.0,-1.0,100
19,Practice,1454.76,P24,1657.88,1659.39,9.26,C,right,0.78,7,0.65,13,0.82,5,0.52,26,-999,2.0,2,1,3,3.0,-2.0,0.0,-2.0,-3.0,1.0,10
19,Practice,1454.76,P25,1668.99,1670.51,4.43,A,mid,0.78,10,0.68,13,0.85,4,0.55,25,-999,1.0,2,3,1,3.0,1.0,3.0,-2.0,0.0,0.0,111
19,Estimation1,1800.0,E1,1800.08,1801.6,3.43,B,left,0.75,11,0.65,15,0.85,-999,0.55,20,3,,2,1,3,,,,,,,11
19,Estimation1,1800.0,E2,1805.36,1806.88,2.49,B,right,0.75,12,0.65,15,0.85,-999,0.55,20,1,2.0,1,3,2,,,,,,,101
19,Estimation1,1800.0,E3,1809.7,1811.21,3.37,A,right,0.75,12,0.65,15,0.85,-999,0.55,28,3,,3,1,2,,,,,,,100
19,Estimation1,1800.0,E4,1814.93,1816.45,4.92,B,right,0.75,12,0.65,15,0.85,6,0.55,28,1,2.0,2,3,1,,,,,,,101
19,Estimation1,1800.0,E5,1821.71,1823.23,3.97,A,left,0.75,12,0.65,15,0.85,6,0.55,32,2,1.0,1,2,3,,,,,,,1
19,Estimation1,1800.0,E6,1827.56,1829.07,5.33,C,right,0.75,12,0.65,15,0.85,8,0.55,32,1,2.0,2,1,3,,,,,,,101
19,Estimation1,1800.0,E7,1834.74,1836.25,4.94,A,left,0.75,12,0.65,15,0.85,8,0.55,30,2,1.0,1,2,3,,,,,,,100
19,Estimation1,1800.0,E8,1841.54,1843.05,3.8,C,left,0.75,12,0.65,15,0.85,9,0.55,30,1,2.0,2,3,1,,,,,,,100
19,Estimation1,1800.0,E9,1847.2,1848.72,4.75,A,right,0.75,12,0.65,15,0.85,9,0.55,29,2,1.0,3,2,1,,,,,,,100
19,Estimation1,1800.0,E10,1853.8,1855.32,5.43,C,mid,0.75,12,0.65,15,0.85,10,0.55,29,1,2.0,1,3,2,,,,,,,0
19,Estimation1,1800.0,E11,1861.08,1862.6,5.48,C,right,0.75,12,0.65,15,0.85,10,0.55,29,2,1.0,1,2,3,,,,,,,101
19,1,1872.12,1,1872.19,1873.71,8.17,B,left,0.78,12,0.62,14,0.85,10,0.55,29,-999,2.0,3,1,2,3.0,0.0,-3.0,-1.0,0.0,0.0,110
19,1,1872.12,2,1882.22,1883.74,13.38,C,left,0.28,35,0.67,14,0.78,12,-999.0,-999,-999,99.0,3,2,1,0.0,0.0,0.0,0.0,0.0,0.0,101
19,1,1872.12,3,1897.47,1898.99,6.28,A,left,0.78,11,0.68,15,0.76,10,0.66,14,-999,31.0,1,3,2,3.0,-1.0,3.0,0.0,0.0,0.0,0
19,1,1872.12,4,1905.6,1907.12,8.06,B,right,0.75,11,0.68,14,0.85,9,0.55,28,-999,2.0,1,3,2,0.0,-1.0,3.0,-1.0,0.0,-1.0,0
19,1,1872.12,5,1915.51,1917.03,7.46,A,mid,0.72,12,0.68,14,0.7,11,0.66,13,-999,32.0,2,1,3,-3.0,0.0,3.0,-1.0,0.0,-1.0,111
19,1,1872.12,6,1924.83,1926.34,8.57,B,right,0.72,12,0.62,15,0.7,11,0.6,14,-999,32.0,1,3,2,-3.0,0.0,-3.0,0.0,3.0,-1.0,110
19,1,1872.12,7,1935.26,1936.77,8.67,A,left,0.78,12,0.65,14,0.82,10,0.52,29,-999,1.0,1,3,2,3.0,0.0,0.0,-1.0,-3.0,0.0,111
19,1,1872.12,8,1945.79,1947.3,8.85,C,left,0.72,12,0.62,14,0.85,10,0.55,29,-999,2.0,3,2,1,-3.0,0.0,-3.0,-1.0,0.0,0.0,111
19,1,1872.12,9,1956.5,1958.02,4.35,A,left,0.72,12,0.62,14,0.7,11,0.6,13,-999,32.0,1,3,2,-3.0,0.0,-3.0,-1.0,0.0,0.0,101
19,1,1872.12,10,1962.71,1964.23,10.48,A,left,0.75,12,0.62,15,0.88,9,0.58,28,-999,1.0,1,2,3,0.0,0.0,-3.0,0.0,3.0,-1.0,101
19,1,1872.12,11,1975.06,1976.58,12.63,C,left,0.27,37,0.61,16,0.89,11,-999.0,-999,-999,99.0,3,2,1,0.0,0.0,0.0,0.0,0.0,0.0,1
19,1,1872.12,12,1989.56,1991.07,8.75,C,mid,0.75,11,0.62,15,0.88,10,0.58,29,-999,1.0,1,3,2,0.0,-1.0,-3.0,0.0,3.0,0.0,100
19,1,1872.12,13,2000.17,2001.69,11.52,B,right,0.72,11,0.62,15,0.7,10,0.6,14,-999,32.0,2,3,1,-3.0,-1.0,-3.0,0.0,-3.0,-1.0,101
19,1,1872.12,14,2013.55,2015.06,14.04,C,left,0.75,12,0.62,14,0.88,10,0.58,29,-999,2.0,3,2,1,0.0,0.0,-3.0,-1.0,3.0,0.0,111
19,1,1872.12,15,2029.44,2030.96,7.15,A,left,0.78,11,0.68,15,0.85,9,0.55,28,-999,1.0,1,3,2,3.0,-1.0,3.0,0.0,0.0,-1.0,101
19,1,1872.12,16,2038.46,2039.97,10.45,A,right,0.78,12,0.68,15,0.88,9,0.58,28,-999,1.0,3,1,2,3.0,0.0,3.0,0.0,3.0,-1.0,0
19,1,1872.12,17,2050.77,2052.29,15.06,A,right,0.72,12,0.65,15,0.7,11,0.63,14,-999,31.0,3,1,2,-3.0,0.0,0.0,0.0,-3.0,-1.0,0
19,1,1872.12,18,2067.7,2069.21,10.88,A,right,0.75,11,0.68,14,0.73,10,0.66,13,-999,31.0,3,1,2,0.0,-1.0,3.0,-1.0,0.0,-1.0,111
19,1,1872.12,19,2080.43,2081.94,8.85,C,mid,0.78,11,0.68,15,0.88,10,0.58,29,-999,1.0,3,1,2,3.0,-1.0,3.0,0.0,3.0,0.0,10
19,1,1872.12,20,2091.14,2092.66,12.07,B,mid,0.72,12,0.62,15,0.7,11,0.6,14,-999,32.0,3,2,1,-3.0,0.0,-3.0,0.0,0.0,0.0,110
19,1,1872.12,21,2105.07,2106.59,8.32,C,right,0.78,12,0.68,15,0.82,10,0.52,29,-999,1.0,2,1,3,3.0,0.0,3.0,0.0,-3.0,0.0,0
19,1,1872.12,22,2115.25,2116.77,8.76,C,right,0.72,12,0.68,15,0.82,10,0.52,29,-999,2.0,2,1,3,-3.0,0.0,3.0,0.0,-3.0,0.0,11
19,1,1872.12,23,2125.86,2127.38,8.01,C,right,0.72,11,0.65,15,0.88,9,0.58,28,-999,2.0,2,1,3,-3.0,-1.0,0.0,0.0,3.0,-1.0,101
19,1,1872.12,24,2135.73,2137.24,8.08,A,mid,0.78,12,0.62,14,0.85,9,0.55,28,-999,1.0,2,1,3,3.0,0.0,-3.0,-1.0,0.0,-1.0,1
19,1,1872.12,25,2145.66,2147.17,8.52,C,left,0.72,11,0.68,15,0.88,10,0.58,29,-999,2.0,2,3,1,-3.0,-1.0,3.0,0.0,3.0,0.0,11
19,1,1872.12,26,2156.04,2157.55,6.11,A,left,0.75,11,0.62,15,0.73,10,0.6,14,-999,32.0,1,2,3,0.0,-1.0,-3.0,0.0,-3.0,0.0,100
19,1,1872.12,27,2164.02,2165.53,7.06,B,right,0.75,11,0.68,14,0.73,10,0.66,13,-999,32.0,1,3,2,0.0,-1.0,3.0,-1.0,0.0,0.0,11
19,1,1872.12,28,2172.95,2174.46,8.61,A,left,0.75,12,0.65,14,0.73,11,0.63,13,-999,31.0,1,2,3,0.0,0.0,0.0,-1.0,0.0,0.0,101
19,1,1872.12,29,2183.41,2184.93,7.97,A,left,0.72,11,0.65,15,0.7,10,0.63,14,-999,31.0,1,2,3,-3.0,-1.0,0.0,0.0,3.0,-1.0,111
19,1,1872.12,30,2193.24,2194.76,9.01,A,mid,0.75,12,0.65,15,0.85,10,0.55,29,-999,1.0,2,1,3,0.0,0.0,0.0,0.0,0.0,0.0,101
19,1,1872.12,31,2204.1,2205.62,11.28,C,left,0.75,11,0.62,15,0.88,9,0.58,28,-999,2.0,2,3,1,0.0,-1.0,-3.0,0.0,3.0,-1.0,100
19,1,1872.12,32,2217.25,2218.77,8.85,A,mid,0.72,12,0.68,15,0.82,9,0.52,28,-999,1.0,2,1,3,-3.0,0.0,3.0,0.0,-3.0,-1.0,0
19,1,1872.12,33,2227.96,2229.48,10.05,A,mid,0.78,12,0.65,14,0.82,9,0.52,28,-999,1.0,2,3,1,3.0,0.0,0.0,-1.0,-3.0,-1.0,110
19,1,1872.12,34,2239.88,2241.39,10.27,A,left,0.72,12,0.65,15,0.82,9,0.52,28,-999,1.0,1,2,3,-3.0,0.0,0.0,0.0,-3.0,-1.0,10
19,1,1872.12,35,2252.01,2253.52,10.44,A,left,0.72,11,0.65,15,0.7,10,0.63,14,-999,31.0,1,3,2,-3.0,-1.0,0.0,0.0,3.0,-1.0,100
19,1,1872.12,36,2264.3,2265.82,5.83,C,mid,0.27,37,0.47,21,0.86,11,-999.0,-999,-999,99.0,3,1,2,0.0,0.0,0.0,0.0,0.0,0.0,110
19,1,1872.12,37,2272.0,2273.52,4.5,C,left,0.72,11,0.62,14,0.88,10,0.58,29,-999,2.0,2,3,1,-3.0,-1.0,-3.0,-1.0,3.0,0.0,0
19,1,1872.12,38,2288.08,2289.59,6.17,A,mid,0.75,12,0.65,15,0.73,11,0.63,14,-999,31.0,2,1,3,0.0,0.0,0.0,0.0,0.0,-1.0,111
19,1,1872.12,39,2296.11,2297.62,7.25,B,mid,0.78,11,0.65,15,0.76,10,0.63,14,-999,32.0,1,2,3,3.0,-1.0,0.0,0.0,-3.0,-1.0,100
19,1,1872.12,40,2305.22,2306.74,7.82,C,right,0.29,34,0.42,23,0.72,13,-999.0,-999,-999,99.0,1,2,3,0.0,0.0,0.0,0.0,0.0,0.0,110
19,1,1872.12,41,2314.9,2316.42,2.9,C,right,0.72,12,0.68,14,0.88,10,0.58,29,-999,2.0,1,2,3,-3.0,0.0,3.0,-1.0,3.0,0.0,11
19,1,1872.12,42,2319.65,2321.17,5.95,A,right,0.72,12,0.62,15,0.7,11,0.6,14,-999,31.0,3,1,2,-3.0,0.0,-3.0,0.0,0.0,-1.0,110
19,1,1872.12,43,2327.45,2328.97,9.01,A,mid,0.75,12,0.65,14,0.73,11,0.63,13,-999,31.0,2,1,3,0.0,0.0,0.0,-1.0,-3.0,-1.0,110
19,1,1872.12,44,2338.33,2339.85,7.55,A,left,0.24,41,0.37,27,0.76,13,-999.0,-999,-999,99.0,1,3,2,0.0,0.0,0.0,0.0,0.0,0.0,1
19,1,1872.12,45,2347.74,2349.26,5.24,C,right,0.72,11,0.65,15,0.85,10,0.55,29,-999,2.0,1,2,3,-3.0,-1.0,0.0,0.0,0.0,0.0,110
19,1,1872.12,46,2354.84,2356.36,9.27,C,mid,0.75,11,0.68,15,0.88,10,0.58,29,-999,1.0,3,1,2,0.0,-1.0,3.0,0.0,3.0,0.0,10
19,1,1872.12,47,2365.97,2367.49,3.81,C,left,0.72,12,0.62,14,0.85,10,0.55,29,-999,2.0,3,2,1,-3.0,0.0,-3.0,-1.0,0.0,0.0,1
19,1,1872.12,48,2371.63,2373.15,5.51,C,right,0.32,31,0.48,20,0.85,11,-999.0,-999,-999,99.0,2,1,3,0.0,0.0,0.0,0.0,0.0,0.0,10
19,1,1872.12,49,2379.0,2380.51,9.02,B,right,0.16,62,0.46,21,0.87,11,-999.0,-999,-999,99.0,2,3,1,0.0,0.0,0.0,0.0,0.0,0.0,11
19,1,1872.12,50,2389.88,2391.39,10.22,A,left,0.78,11,0.62,15,0.76,10,0.6,14,-999,31.0,1,2,3,3.0,-1.0,-3.0,0.0,0.0,0.0,10
19,1,1872.12,51,2401.96,2403.47,5.71,B,mid,0.75,11,0.65,14,0.73,10,0.63,13,-999,32.0,1,2,3,0.0,-1.0,0.0,-1.0,3.0,0.0,11
19,1,1872.12,52,2409.52,2411.04,7.65,A,right,0.78,12,0.68,15,0.76,11,0.66,14,-999,31.0,3,2,1,3.0,0.0,3.0,0.0,0.0,0.0,0
19,1,1872.12,53,2419.04,2420.55,7.64,B,left,0.72,12,0.65,14,0.7,11,0.63,13,-999,32.0,2,1,3,-3.0,0.0,0.0,-1.0,3.0,0.0,1
19,1,1872.12,54,2428.53,2430.05,6.85,B,left,0.78,12,0.65,15,0.76,11,0.63,14,-999,32.0,2,1,3,3.0,0.0,0.0,0.0,0.0,0.0,10
19,1,1872.12,55,2437.25,2438.76,4.96,C,right,0.75,12,0.65,14,0.85,9,0.55,28,-999,2.0,1,2,3,0.0,0.0,0.0,-1.0,0.0,-1.0,0
19,1,1872.12,56,2444.06,2445.58,6.81,B,left,0.78,12,0.65,15,0.76,11,0.63,14,-999,32.0,2,1,3,3.0,0.0,0.0,0.0,-3.0,-1.0,100
19,1,1872.12,57,2452.73,2454.24,9.72,B,mid,0.78,12,0.62,15,0.76,11,0.6,14,-999,32.0,1,2,3,3.0,0.0,-3.0,0.0,3.0,0.0,0
19,1,1872.12,58,2464.3,2465.82,7.52,C,left,0.78,12,0.65,14,0.82,9,0.52,28,-999,2.0,2,3,1,3.0,0.0,0.0,-1.0,-3.0,-1.0,10
19,1,1872.12,59,2473.69,2475.2,4.12,C,right,0.31,32,0.38,26,0.85,11,-999.0,-999,-999,99.0,1,2,3,0.0,0.0,0.0,0.0,0.0,0.0,101
19,1,1872.12,60,2479.67,2481.18,7.8,B,right,0.78,11,0.68,14,0.76,10,0.66,13,-999,32.0,1,3,2,3.0,-1.0,3.0,-1.0,3.0,-1.0,111
19,1,1872.12,61,2489.33,2490.85,6.66,A,mid,0.72,11,0.68,14,0.7,10,0.66,13,-999,31.0,2,1,3,-3.0,-1.0,3.0,-1.0,-3.0,0.0,100
19,1,1872.12,62,2497.84,2499.36,4.76,C,mid,0.72,12,0.65,15,0.82,9,0.52,28,-999,2.0,3,1,2,-3.0,0.0,0.0,0.0,-3.0,-1.0,110
19,1,1872.12,63,2504.46,2505.98,10.09,B,mid,0.32,31,0.6,16,0.78,12,-999.0,-999,-999,99.0,3,2,1,0.0,0.0,0.0,0.0,0.0,0.0,1
19,1,1872.12,64,2516.4,2517.92,14.73,A,right,0.19,52,0.59,16,0.81,12,-999.0,-999,-999,99.0,3,1,2,0.0,0.0,0.0,0.0,0.0,0.0,111
19,1,1872.12,65,2533.0,2534.52,8.74,A,right,0.75,11,0.65,15,0.73,10,0.63,14,-999,31.0,3,2,1,0.0,-1.0,0.0,0.0,3.0,-1.0,0
19,1,1872.12,66,2543.6,2545.11,7.6,B,mid,0.78,11,0.62,15,0.76,10,0.6,14,-999,32.0,1,2,3,3.0,-1.0,-3.0,0.0,-3.0,-1.0,0
19,1,1872.12,67,2553.06,2554.58,11.73,B,right,0.78,11,0.62,14,0.76,10,0.6,13,-999,32.0,2,3,1,3.0,-1.0,-3.0,-1.0,0.0,-1.0,110
19,1,1872.12,68,2566.66,2568.17,9.21,C,right,0.19,52,0.56,17,0.8,12,-999.0,-999,-999,99.0,2,1,3,0.0,0.0,0.0,0.0,0.0,0.0,101
19,1,1872.12,69,2577.72,2579.23,10.23,B,left,0.72,12,0.68,15,0.82,9,0.52,28,-999,1.0,2,1,3,-3.0,0.0,3.0,0.0,-3.0,-1.0,111
19,1,1872.12,70,2589.81,2591.33,12.36,A,left,0.75,12,0.65,15,0.73,11,0.63,14,-999,31.0,1,3,2,0.0,0.0,0.0,0.0,0.0,0.0,10
19,1,1872.12,71,2604.03,2605.54,7.22,B,mid,0.78,11,0.62,15,0.85,9,0.55,28,-999,1.0,1,2,3,3.0,-1.0,-3.0,0.0,0.0,-1.0,111
19,1,1872.12,72,2613.11,2614.62,3.62,C,mid,0.72,11,0.68,14,0.85,10,0.55,29,-999,2.0,3,1,2,-3.0,-1.0,3.0,-1.0,0.0,0.0,111
19,1,1872.12,73,2618.59,2620.11,7.89,A,right,0.78,12,0.62,14,0.76,11,0.6,13,-999,31.0,3,2,1,3.0,0.0,-3.0,-1.0,-3.0,0.0,100
19,1,1872.12,74,2628.34,2629.85,9.44,A,right,0.75,12,0.65,15,0.82,9,0.52,28,-999,1.0,3,1,2,0.0,0.0,0.0,0.0,-3.0,-1.0,0
19,1,1872.12,75,2639.63,2641.15,8.76,A,left,0.72,11,0.65,14,0.7,10,0.63,13,-999,31.0,1,3,2,-3.0,-1.0,0.0,-1.0,3.0,-1.0,110
19,Estimation2,2694.24,E1,2694.31,2695.83,3.95,A,right,0.75,11,0.65,15,0.85,-999,0.55,20,3,,3,1,2,,,,,,,110
19,Estimation2,2694.24,E2,2700.11,2701.63,5.66,B,left,0.75,8,0.65,15,0.85,-999,0.55,20,1,2.0,2,1,3,,,,,,,110
19,Estimation2,2694.24,E3,2707.63,2709.14,5.67,B,mid,0.75,8,0.65,15,0.85,-999,0.55,28,3,,3,2,1,,,,,,,110
19,Estimation2,2694.24,E4,2715.16,2716.67,4.03,C,left,0.75,10,0.65,15,0.85,-999,0.55,28,1,2.0,3,2,1,,,,,,,100
19,Estimation2,2694.24,E5,2721.04,2722.56,5.86,B,left,0.75,10,0.65,15,0.85,-999,0.55,24,3,,2,1,3,,,,,,,110
19,Estimation2,2694.24,E6,2728.75,2730.27,3.46,C,right,0.75,11,0.65,15,0.85,-999,0.55,24,1,2.0,1,2,3,,,,,,,0
19,Estimation2,2694.24,E7,2734.07,2735.59,3.8,A,right,0.75,11,0.65,15,0.85,-999,0.55,22,3,,3,1,2,,,,,,,1
19,Estimation2,2694.24,E8,2739.73,2741.25,5.86,C,mid,0.75,11,0.65,15,0.85,6,0.55,22,1,2.0,1,3,2,,,,,,,1
19,Estimation2,2694.24,E9,2747.45,2748.96,2.08,A,left,0.75,11,0.65,15,0.85,6,0.55,21,2,1.0,1,3,2,,,,,,,0
19,Estimation2,2694.24,E10,2751.38,2752.9,5.3,B,mid,0.75,11,0.65,15,0.85,8,0.55,21,1,2.0,1,2,3,,,,,,,0
19,Estimation2,2694.24,E11,2758.54,2760.06,5.27,C,mid,0.75,11,0.65,15,0.85,8,0.55,22,2,1.0,3,1,2,,,,,,,101
19,Estimation2,2694.24,E12,2765.68,2767.19,4.55,C,mid,0.75,11,0.65,15,0.85,7,0.55,22,1,2.0,3,1,2,,,,,,,10
19,Estimation2,2694.24,E13,2772.09,2773.61,5.06,C,left,0.75,11,0.65,15,0.85,7,0.55,22,2,1.0,3,2,1,,,,,,,110
19,2,2783.75,1,2783.82,2785.34,5.3,B,mid,0.72,11,0.62,14,0.7,10,0.6,13,-999,32.0,3,2,1,-3.0,0.0,-3.0,-1.0,0.0,0.0,110
19,2,2783.75,2,2790.98,2792.5,8.64,A,mid,0.78,11,0.68,15,0.76,10,0.66,14,-999,31.0,2,3,1,3.0,0.0,3.0,0.0,0.0,0.0,110
19,2,2783.75,3,2801.48,2803.0,7.78,A,right,0.75,10,0.65,15,0.73,9,0.63,14,-999,31.0,3,1,2,0.0,-1.0,0.0,0.0,3.0,-1.0,11
19,2,2783.75,4,2811.11,2812.63,8.33,C,right,0.27,37,0.61,16,0.89,11,-999.0,-999,-999,99.0,1,2,3,0.0,0.0,0.0,0.0,0.0,0.0,101
19,2,2783.75,5,2821.31,2822.82,8.74,B,right,0.78,11,0.62,14,0.85,6,0.55,21,-999,1.0,1,3,2,3.0,0.0,-3.0,-1.0,0.0,-1.0,111
19,2,2783.75,6,2831.9,2833.42,3.63,C,right,0.75,11,0.62,14,0.88,7,0.58,22,-999,2.0,2,1,3,0.0,0.0,-3.0,-1.0,3.0,0.0,11
19,2,2783.75,7,2837.4,2838.92,5.84,B,left,0.72,11,0.65,14,0.7,10,0.63,13,-999,32.0,2,1,3,-3.0,0.0,0.0,-1.0,3.0,0.0,100
19,2,2783.75,8,2845.1,2846.62,6.12,B,mid,0.75,10,0.62,15,0.73,9,0.6,14,-999,32.0,3,2,1,0.0,-1.0,-3.0,0.0,-3.0,0.0,0
19,2,2783.75,9,2853.08,2854.6,11.03,B,right,0.75,10,0.68,15,0.88,7,0.58,22,-999,1.0,2,3,1,0.0,-1.0,3.0,0.0,3.0,0.0,111
19,2,2783.75,10,2865.96,2867.48,4.14,C,left,0.72,10,0.65,15,0.88,6,0.58,21,-999,2.0,3,2,1,-3.0,-1.0,0.0,0.0,3.0,-1.0,0
19,2,2783.75,11,2871.96,2873.47,8.93,B,left,0.78,10,0.68,14,0.76,9,0.66,13,-999,32.0,2,1,3,3.0,-1.0,3.0,-1.0,3.0,-1.0,1
19,2,2783.75,12,2882.76,2884.27,6.52,B,mid,0.72,10,0.65,15,0.85,7,0.55,22,-999,2.0,3,2,1,-3.0,-1.0,0.0,0.0,0.0,0.0,10
19,2,2783.75,13,2891.14,2892.65,9.4,C,mid,0.72,10,0.68,15,0.88,7,0.58,22,-999,2.0,3,1,2,-3.0,-1.0,3.0,0.0,3.0,0.0,110
19,2,2783.75,14,2902.38,2903.9,6.78,B,left,0.72,11,0.62,15,0.7,10,0.6,14,-999,32.0,3,1,2,-3.0,0.0,-3.0,0.0,0.0,0.0,0
19,2,2783.75,15,2911.01,2912.53,10.49,B,left,0.78,10,0.62,14,0.76,9,0.6,13,-999,32.0,2,1,3,3.0,-1.0,-3.0,-1.0,0.0,-1.0,110
19,2,2783.75,16,2923.36,2924.87,9.48,B,left,0.75,10,0.68,14,0.73,9,0.66,13,-999,32.0,3,1,2,0.0,-1.0,3.0,-1.0,0.0,0.0,110
19,2,2783.75,17,2934.7,2936.22,5.33,B,right,0.78,10,0.62,15,0.76,9,0.6,14,-999,32.0,1,3,2,3.0,-1.0,-3.0,0.0,-3.0,-1.0,0
19,2,2783.75,18,2941.89,2943.4,4.91,B,mid,0.78,11,0.65,15,0.76,10,0.63,14,-999,32.0,3,2,1,3.0,0.0,0.0,0.0,0.0,0.0,1
19,2,2783.75,19,2948.65,2950.17,8.93,B,right,0.78,10,0.68,15,0.88,7,0.58,22,-999,1.0,2,3,1,3.0,-1.0,3.0,0.0,3.0,0.0,11
19,2,2783.75,20,2959.45,2960.96,8.79,A,left,0.72,10,0.62,15,0.7,9,0.6,14,-999,32.0,1,3,2,-3.0,-1.0,-3.0,0.0,-3.0,-1.0,10
19,2,2783.75,21,2970.09,2971.61,7.93,C,left,0.32,31,0.6,16,0.78,12,-999.0,-999,-999,99.0,3,2,1,0.0,0.0,0.0,0.0,0.0,0.0,10
19,2,2783.75,22,2979.89,2981.41,10.19,B,left,0.72,10,0.65,15,0.7,9,0.63,14,-999,31.0,3,1,2,-3.0,-1.0,0.0,0.0,3.0,-1.0,11
19,2,2783.75,23,2991.94,2993.45,6.25,C,left,0.28,35,0.67,14,0.78,12,-999.0,-999,-999,99.0,2,3,1,0.0,0.0,0.0,0.0,0.0,0.0,101
19,2,2783.75,24,3000.05,3001.57,8.98,B,mid,0.72,11,0.68,15,0.82,6,0.52,21,-999,1.0,3,2,1,-3.0,0.0,3.0,0.0,-3.0,-1.0,10
19,2,2783.75,25,3010.9,3012.41,10.05,A,right,0.78,11,0.65,14,0.82,6,0.52,21,-999,1.0,3,2,1,3.0,0.0,0.0,-1.0,-3.0,-1.0,111
19,2,2783.75,26,3022.81,3024.33,10.81,B,left,0.24,41,0.37,27,0.76,13,-999.0,-999,-999,99.0,3,1,2,0.0,0.0,0.0,0.0,0.0,0.0,10
19,2,2783.75,27,3035.49,3037.01,14.22,A,mid,0.27,37,0.47,21,0.86,11,-999.0,-999,-999,99.0,2,3,1,0.0,0.0,0.0,0.0,0.0,0.0,100
19,2,2783.75,28,3051.57,3053.08,7.22,B,mid,0.75,11,0.65,15,0.82,6,0.52,21,-999,1.0,1,2,3,0.0,0.0,0.0,0.0,-3.0,-1.0,11
19,2,2783.75,29,3060.65,3062.16,8.69,C,left,0.72,11,0.62,14,0.85,7,0.55,22,-999,2.0,2,3,1,-3.0,0.0,-3.0,-1.0,0.0,0.0,1
19,2,2783.75,30,3071.19,3072.71,11.9,B,right,0.19,52,0.56,17,0.8,12,-999.0,-999,-999,99.0,1,3,2,0.0,0.0,0.0,0.0,0.0,0.0,0
19,2,2783.75,31,3084.96,3086.47,7.73,A,right,0.78,11,0.62,14,0.76,10,0.6,13,-999,31.0,3,1,2,3.0,0.0,-3.0,-1.0,-3.0,0.0,100
19,2,2783.75,32,3094.55,3096.07,9.26,B,mid,0.78,10,0.62,15,0.76,9,0.6,14,-999,31.0,1,2,3,3.0,-1.0,-3.0,0.0,0.0,0.0,0
19,2,2783.75,33,3105.67,3107.18,4.41,C,right,0.72,11,0.68,14,0.88,7,0.58,22,-999,2.0,2,1,3,-3.0,0.0,3.0,-1.0,3.0,0.0,10
19,2,2783.75,34,3111.93,3113.45,6.6,A,left,0.78,11,0.68,15,0.82,7,0.52,22,-999,1.0,1,3,2,3.0,0.0,3.0,0.0,-3.0,0.0,111
19,2,2783.75,35,3120.38,3121.9,11.79,A,left,0.75,11,0.65,15,0.73,10,0.63,14,-999,31.0,1,2,3,0.0,0.0,0.0,0.0,0.0,0.0,10
19,2,2783.75,36,3134.02,3135.54,9.3,A,right,0.29,34,0.42,23,0.72,13,-999.0,-999,-999,99.0,3,2,1,0.0,0.0,0.0,0.0,0.0,0.0,100
19,2,2783.75,37,3145.17,3146.69,10.08,B,mid,0.31,32,0.38,26,0.85,11,-999.0,-999,-999,99.0,1,2,3,0.0,0.0,0.0,0.0,0.0,0.0,101
19,2,2783.75,38,3173.28,3174.79,6.71,B,right,0.78,11,0.68,15,0.88,6,0.58,21,-999,1.0,1,3,2,3.0,0.0,3.0,0.0,3.0,-1.0,11
19,2,2783.75,39,3181.84,3183.36,6.78,A,left,0.75,10,0.62,15,0.88,7,0.58,22,-999,1.0,1,3,2,0.0,-1.0,-3.0,0.0,3.0,0.0,11
19,2,2783.75,40,3190.47,3191.99,8.86,A,right,0.75,11,0.65,15,0.73,10,0.63,14,-999,31.0,3,1,2,0.0,0.0,0.0,0.0,0.0,-1.0,111
19,2,2783.75,41,3201.19,3202.7,3.88,C,mid,0.72,11,0.62,14,0.85,7,0.55,22,-999,2.0,1,3,2,-3.0,0.0,-3.0,-1.0,0.0,0.0,111
19,2,2783.75,42,3206.92,3208.43,10.84,B,left,0.78,11,0.62,15,0.76,10,0.6,14,-999,32.0,2,1,3,3.0,0.0,-3.0,0.0,3.0,0.0,10
19,2,2783.75,43,3219.61,3221.13,6.07,A,left,0.75,11,0.65,14,0.73,10,0.63,13,-999,31.0,1,2,3,0.0,0.0,0.0,-1.0,0.0,0.0,0
19,2,2783.75,44,3227.58,3229.09,10.95,B,left,0.72,11,0.65,15,0.82,6,0.52,21,-999,2.0,3,1,2,-3.0,0.0,0.0,0.0,-3.0,-1.0,0
19,2,2783.75,45,3240.39,3241.91,7.55,B,mid,0.78,11,0.65,14,0.82,6,0.52,21,-999,2.0,1,2,3,3.0,0.0,0.0,-1.0,-3.0,-1.0,100
19,2,2783.75,46,3249.8,3251.32,8.89,B,left,0.72,10,0.65,14,0.7,9,0.63,13,-999,31.0,2,1,3,-3.0,-1.0,0.0,-1.0,3.0,-1.0,101
19,2,2783.75,47,3260.55,3262.07,9.5,A,left,0.78,11,0.65,14,0.82,7,0.52,22,-999,1.0,1,2,3,3.0,0.0,0.0,-1.0,-3.0,0.0,100
19,2,2783.75,48,3271.91,3273.43,7.09,A,mid,0.72,11,0.62,15,0.7,10,0.6,14,-999,31.0,2,3,1,-3.0,0.0,-3.0,0.0,0.0,-1.0,11
19,2,2783.75,49,3280.86,3282.38,4.91,C,left,0.75,11,0.65,14,0.85,6,0.55,21,-999,2.0,3,2,1,0.0,0.0,0.0,-1.0,0.0,-1.0,11
19,2,2783.75,50,3287.63,3289.14,7.76,B,left,0.78,10,0.65,15,0.76,9,0.63,14,-999,32.0,2,1,3,3.0,-1.0,0.0,0.0,-3.0,-1.0,10
19,2,2783.75,51,3297.24,3298.76,7.62,B,right,0.72,11,0.68,15,0.82,6,0.52,21,-999,1.0,1,3,2,-3.0,0.0,3.0,0.0,-3.0,-1.0,10
19,2,2783.75,52,3306.72,3308.24,13.13,A,mid,0.19,52,0.59,16,0.81,12,-999.0,-999,-999,99.0,2,1,3,0.0,0.0,0.0,0.0,0.0,0.0,110
19,2,2783.75,53,3321.71,3323.23,13.48,B,right,0.78,10,0.68,15,0.85,6,0.55,21,-999,1.0,1,3,2,3.0,-1.0,3.0,0.0,0.0,-1.0,0
19,2,2783.75,54,3337.04,3338.56,5.01,C,right,0.75,10,0.68,14,0.85,6,0.55,21,-999,2.0,1,2,3,0.0,-1.0,3.0,-1.0,0.0,-1.0,110
19,2,2783.75,55,3343.91,3345.42,8.19,A,mid,0.78,10,0.68,15,0.76,9,0.66,14,-999,31.0,2,3,1,3.0,-1.0,3.0,0.0,0.0,0.0,111
19,2,2783.75,56,3353.95,3355.47,9.44,A,mid,0.78,11,0.65,15,0.76,10,0.63,14,-999,32.0,2,1,3,3.0,0.0,0.0,0.0,-3.0,-1.0,101
19,2,2783.75,57,3365.25,3366.77,12.25,A,right,0.72,11,0.65,15,0.82,6,0.52,21,-999,1.0,3,2,1,-3.0,0.0,0.0,0.0,-3.0,-1.0,100
19,2,2783.75,58,3379.36,3380.88,6.45,B,mid,0.72,10,0.62,14,0.88,7,0.58,22,-999,2.0,1,2,3,-3.0,-1.0,-3.0,-1.0,3.0,0.0,111
19,2,2783.75,59,3387.68,3389.19,6.37,B,mid,0.72,11,0.62,15,0.7,10,0.6,14,-999,32.0,1,2,3,-3.0,0.0,-3.0,0.0,3.0,-1.0,1
19,2,2783.75,60,3395.91,3397.42,6.54,B,mid,0.72,10,0.65,15,0.7,9,0.63,14,-999,31.0,3,2,1,-3.0,-1.0,0.0,0.0,3.0,-1.0,0
19,2,2783.75,61,3404.31,3405.82,4.54,C,left,0.78,11,0.62,14,0.85,7,0.55,22,-999,2.0,2,3,1,3.0,0.0,-3.0,-1.0,0.0,0.0,10
19,2,2783.75,62,3410.7,3412.22,7.67,B,left,0.72,11,0.68,14,0.7,10,0.66,13,-999,32.0,3,1,2,-3.0,0.0,3.0,-1.0,0.0,-1.0,111
19,2,2783.75,63,3420.23,3421.75,4.2,A,right,0.16,62,0.46,21,0.87,11,-999.0,-999,-999,99.0,3,2,1,0.0,0.0,0.0,0.0,0.0,0.0,110
19,2,2783.75,64,3426.28,3427.8,9.88,A,left,0.75,10,0.65,14,0.73,9,0.63,13,-999,32.0,1,2,3,0.0,-1.0,0.0,-1.0,3.0,0.0,100
19,2,2783.75,65,3438.03,3439.54,3.46,C,right,0.72,10,0.68,14,0.85,7,0.55,22,-999,2.0,1,2,3,-3.0,-1.0,3.0,-1.0,0.0,0.0,0
19,2,2783.75,66,3443.34,3444.86,8.78,A,left,0.72,11,0.65,15,0.7,10,0.63,14,-999,31.0,1,2,3,-3.0,0.0,0.0,0.0,-3.0,-1.0,10
19,2,2783.75,67,3453.99,3455.51,8.19,A,right,0.78,10,0.62,15,0.85,6,0.55,21,-999,1.0,3,1,2,3.0,-1.0,-3.0,0.0,0.0,-1.0,0
19,2,2783.75,68,3464.04,3465.55,4.3,B,right,0.72,10,0.68,14,0.7,9,0.66,13,-999,31.0,2,3,1,-3.0,-1.0,3.0,-1.0,-3.0,0.0,110
19,2,2783.75,69,3470.18,3471.7,8.84,A,right,0.75,11,0.65,15,0.85,7,0.55,22,-999,1.0,3,2,1,0.0,0.0,0.0,0.0,0.0,0.0,10
19,2,2783.75,70,3480.88,3482.4,8.28,C,left,0.75,10,0.62,15,0.88,6,0.58,21,-999,2.0,3,2,1,0.0,-1.0,-3.0,0.0,3.0,-1.0,110
19,2,2783.75,71,3491.01,3492.53,11.53,A,right,0.75,11,0.62,15,0.88,6,0.58,21,-999,1.0,3,1,2,0.0,0.0,-3.0,0.0,3.0,-1.0,10
19,2,2783.75,72,3504.41,3505.92,6.35,A,mid,0.75,11,0.65,14,0.73,10,0.63,13,-999,31.0,2,1,3,0.0,0.0,0.0,-1.0,-3.0,-1.0,1
19,2,2783.75,73,3512.62,3514.14,10.1,B,mid,0.32,31,0.48,20,0.85,11,-999.0,-999,-999,99.0,3,2,1,0.0,0.0,0.0,0.0,0.0,0.0,110
19,2,2783.75,74,3524.58,3526.1,7.89,A,left,0.75,10,0.68,14,0.73,9,0.66,13,-999,31.0,1,3,2,0.0,-1.0,3.0,-1.0,0.0,-1.0,110
19,2,2783.75,75,3534.33,3535.85,12.07,B,mid,0.72,11,0.68,15,0.82,7,0.52,22,-999,2.0,3,2,1,-3.0,0.0,3.0,0.0,-3.0,0.0,110
19,Estimation3,3593.48,E1,3593.54,3595.06,5.12,A,right,0.75,11,0.65,15,0.85,-999,0.55,20,3,,3,2,1,,,,,,,11
19,Estimation3,3593.48,E2,3600.51,3602.03,3.47,B,right,0.75,8,0.65,15,0.85,-999,0.55,20,1,2.0,1,3,2,,,,,,,111
19,Estimation3,3593.48,E3,3605.84,3607.36,3.91,B,left,0.75,8,0.65,15,0.85,-999,0.55,28,3,,3,1,2,,,,,,,100
19,Estimation3,3593.48,E4,3611.61,3613.12,2.14,C,left,0.75,10,0.65,15,0.85,-999,0.55,28,1,2.0,3,2,1,,,,,,,11
19,Estimation3,3593.48,E5,3615.6,3617.12,5.1,B,mid,0.75,10,0.65,15,0.85,-999,0.55,24,3,,1,2,3,,,,,,,110
19,Estimation3,3593.48,E6,3622.57,3624.09,3.95,C,right,0.75,11,0.65,15,0.85,-999,0.55,24,1,2.0,1,2,3,,,,,,,0
19,Estimation3,3593.48,E7,3628.37,3629.88,5.04,A,right,0.75,11,0.65,15,0.85,-999,0.55,22,3,,3,2,1,,,,,,,111
19,Estimation3,3593.48,E8,3635.27,3636.78,5.39,C,mid,0.75,11,0.65,15,0.85,6,0.55,22,1,2.0,3,1,2,,,,,,,101
19,Estimation3,3593.48,E9,3642.51,3644.03,6.16,A,left,0.75,11,0.65,15,0.85,6,0.55,21,2,1.0,1,2,3,,,,,,,11
19,Estimation3,3593.48,E10,3650.53,3652.04,3.74,C,left,0.75,11,0.65,15,0.85,8,0.55,21,1,2.0,3,2,1,,,,,,,0
19,Estimation3,3593.48,E11,3656.12,3657.64,7.45,A,left,0.75,11,0.65,15,0.85,8,0.55,21,2,1.0,1,3,2,,,,,,,0
19,Estimation3,3593.48,E12,3665.44,3666.96,3.44,C,left,0.75,11,0.65,15,0.85,9,0.55,21,1,2.0,2,3,1,,,,,,,10
19,Estimation3,3593.48,E13,3670.74,3672.25,5.3,C,right,0.75,11,0.65,15,0.85,9,0.55,21,2,1.0,2,1,3,,,,,,,11
19,3,3684.17,1,3684.25,3685.77,8.88,A,right,0.78,11,0.68,15,0.76,10,0.66,14,-999,31.0,3,2,1,3.0,0.0,3.0,0.0,0.0,0.0,111
19,3,3684.17,2,3695.0,3696.51,6.05,A,mid,0.78,11,0.68,15,0.82,9,0.52,21,-999,1.0,2,3,1,3.0,0.0,3.0,0.0,-3.0,0.0,111
19,3,3684.17,3,3702.89,3704.41,5.92,C,right,0.72,10,0.68,14,0.85,9,0.55,21,-999,2.0,2,1,3,-3.0,-1.0,3.0,-1.0,0.0,0.0,111
19,3,3684.17,4,3710.67,3712.19,7.42,A,mid,0.78,10,0.68,15,0.88,9,0.58,21,-999,1.0,2,3,1,3.0,-1.0,3.0,0.0,3.0,0.0,111
19,3,3684.17,5,3719.95,3721.47,7.98,B,mid,0.72,11,0.68,15,0.82,9,0.52,21,-999,2.0,1,2,3,-3.0,0.0,3.0,0.0,-3.0,0.0,11
19,3,3684.17,6,3729.8,3731.32,9.17,C,mid,0.72,11,0.65,15,0.82,8,0.52,20,-999,2.0,3,1,2,-3.0,0.0,0.0,0.0,-3.0,-1.0,111
19,3,3684.17,7,3740.83,3742.35,11.59,C,mid,0.75,11,0.65,14,0.85,8,0.55,20,-999,2.0,1,3,2,0.0,0.0,0.0,-1.0,0.0,-1.0,1
19,3,3684.17,8,3754.28,3755.79,6.46,B,left,0.72,11,0.65,14,0.7,10,0.63,13,-999,32.0,3,1,2,-3.0,0.0,0.0,-1.0,3.0,0.0,10
19,3,3684.17,9,3762.59,3764.11,6.77,A,left,0.78,11,0.62,14,0.76,10,0.6,13,-999,31.0,1,2,3,3.0,0.0,-3.0,-1.0,-3.0,0.0,11
19,3,3684.17,10,3771.22,3772.74,5.69,B,right,0.72,10,0.68,14,0.7,9,0.66,13,-999,31.0,1,3,2,-3.0,-1.0,3.0,-1.0,-3.0,0.0,10
19,3,3684.17,11,3778.77,3780.29,10.51,A,right,0.72,11,0.62,15,0.7,10,0.6,14,-999,31.0,3,1,2,-3.0,0.0,-3.0,0.0,0.0,-1.0,1
19,3,3684.17,12,3791.13,3792.65,8.13,A,mid,0.72,11,0.68,15,0.82,8,0.52,20,-999,1.0,2,3,1,-3.0,0.0,3.0,0.0,-3.0,-1.0,101
19,3,3684.17,13,3801.13,3802.65,6.51,A,right,0.16,62,0.46,21,0.87,11,-999.0,-999,-999,99.0,3,2,1,0.0,0.0,0.0,0.0,0.0,0.0,110
19,3,3684.17,14,3809.49,3811.01,7.0,B,mid,0.75,10,0.62,15,0.88,8,0.58,20,-999,2.0,3,2,1,0.0,-1.0,-3.0,0.0,3.0,-1.0,111
19,3,3684.17,15,3818.34,3819.86,8.56,A,left,0.75,11,0.65,15,0.73,10,0.63,14,-999,31.0,1,2,3,0.0,0.0,0.0,0.0,0.0,-1.0,1
19,3,3684.17,16,3828.75,3830.27,8.94,C,right,0.78,11,0.62,14,0.85,9,0.55,21,-999,2.0,1,2,3,3.0,0.0,-3.0,-1.0,0.0,0.0,0
19,3,3684.17,17,3839.55,3841.07,9.06,B,right,0.72,11,0.62,15,0.7,10,0.6,14,-999,32.0,2,3,1,-3.0,0.0,-3.0,0.0,3.0,-1.0,111
19,3,3684.17,18,3850.46,3851.98,9.57,B,right,0.72,10,0.65,15,0.88,8,0.58,20,-999,2.0,1,3,2,-3.0,-1.0,0.0,0.0,3.0,-1.0,11
19,3,3684.17,19,3861.89,3863.41,6.28,B,left,0.75,11,0.65,15,0.85,9,0.55,21,-999,1.0,2,1,3,0.0,0.0,0.0,0.0,0.0,0.0,11
19,3,3684.17,20,3870.02,3871.54,12.72,B,mid,0.29,34,0.42,23,0.72,13,-999.0,-999,-999,99.0,1,2,3,0.0,0.0,0.0,0.0,0.0,0.0,110
19,3,3684.17,21,3884.6,3886.12,9.33,A,right,0.75,11,0.65,15,0.73,10,0.63,14,-999,31.0,3,1,2,0.0,0.0,0.0,0.0,0.0,0.0,10
19,3,3684.17,22,3895.8,3897.31,11.13,C,right,0.32,31,0.6,16,0.78,12,-999.0,-999,-999,99.0,2,1,3,0.0,0.0,0.0,0.0,0.0,0.0,100
19,3,3684.17,23,3908.79,3910.31,5.94,A,left,0.31,32,0.38,26,0.85,11,-999.0,-999,-999,99.0,1,2,3,0.0,0.0,0.0,0.0,0.0,0.0,11
19,3,3684.17,24,3916.59,3918.11,10.47,A,left,0.78,10,0.68,15,0.85,8,0.55,20,-999,1.0,1,3,2,3.0,-1.0,3.0,0.0,0.0,-1.0,111
19,3,3684.17,25,3928.92,3930.44,10.46,A,mid,0.75,11,0.65,15,0.82,8,0.52,20,-999,1.0,2,3,1,0.0,0.0,0.0,0.0,-3.0,-1.0,11
19,3,3684.17,26,3941.23,3942.75,5.23,A,mid,0.24,41,0.37,27,0.76,13,-999.0,-999,-999,99.0,2,3,1,0.0,0.0,0.0,0.0,0.0,0.0,10
19,3,3684.17,27,3948.32,3949.83,14.68,A,right,0.32,31,0.48,20,0.85,11,-999.0,-999,-999,99.0,3,2,1,0.0,0.0,0.0,0.0,0.0,0.0,101
19,3,3684.17,28,3964.84,3966.36,9.09,A,right,0.78,11,0.65,14,0.82,8,0.52,20,-999,1.0,3,2,1,3.0,0.0,0.0,-1.0,-3.0,-1.0,111
19,3,3684.17,29,3975.79,3977.31,7.71,B,left,0.78,11,0.65,14,0.82,8,0.52,20,-999,2.0,3,1,2,3.0,0.0,0.0,-1.0,-3.0,-1.0,10
19,3,3684.17,30,3985.35,3986.87,6.22,B,left,0.78,10,0.68,14,0.76,9,0.66,13,-999,32.0,2,1,3,3.0,-1.0,3.0,-1.0,3.0,-1.0,110
19,3,3684.17,31,3993.43,3994.95,9.37,B,right,0.19,52,0.59,16,0.81,12,-999.0,-999,-999,99.0,1,3,2,0.0,0.0,0.0,0.0,0.0,0.0,0
19,3,3684.17,32,4004.66,4006.18,5.78,B,right,0.78,10,0.62,15,0.76,9,0.6,14,-999,32.0,2,3,1,3.0,-1.0,-3.0,0.0,-3.0,-1.0,11
19,3,3684.17,33,4012.3,4013.81,7.42,A,left,0.78,11,0.65,14,0.82,9,0.52,21,-999,1.0,1,2,3,3.0,0.0,0.0,-1.0,-3.0,0.0,11
19,3,3684.17,34,4021.58,4023.09,6.15,C,mid,0.72,11,0.62,14,0.85,9,0.55,21,-999,2.0,3,1,2,-3.0,0.0,-3.0,-1.0,0.0,0.0,110
19,3,3684.17,35,4029.59,4031.11,9.63,B,left,0.75,10,0.65,15,0.73,9,0.63,14,-999,31.0,3,1,2,0.0,-1.0,0.0,0.0,3.0,-1.0,10
19,3,3684.17,36,4041.09,4042.6,13.6,B,right,0.72,11,0.68,14,0.7,10,0.66,13,-999,32.0,1,3,2,-3.0,0.0,3.0,-1.0,0.0,-1.0,1
19,3,3684.17,37,4056.55,4058.06,4.59,B,left,0.78,11,0.62,15,0.76,10,0.6,14,-999,32.0,2,1,3,3.0,0.0,-3.0,0.0,3.0,0.0,11
19,3,3684.17,38,4113.16,4114.68,5.07,B,right,0.72,11,0.65,15,0.7,10,0.63,14,-999,31.0,1,3,2,-3.0,0.0,0.0,0.0,-3.0,-1.0,110
19,3,3684.17,39,4120.09,4121.61,6.88,B,left,0.75,10,0.68,14,0.73,9,0.66,13,-999,31.0,2,1,3,0.0,-1.0,3.0,-1.0,0.0,-1.0,100
19,3,3684.17,40,4128.82,4130.34,3.58,B,right,0.78,11,0.65,15,0.76,10,0.63,14,-999,32.0,2,3,1,3.0,0.0,0.0,0.0,0.0,0.0,10
19,3,3684.17,41,4134.26,4135.77,9.09,A,right,0.72,10,0.62,15,0.7,9,0.6,14,-999,32.0,3,2,1,-3.0,-1.0,-3.0,0.0,-3.0,-1.0,1
19,3,3684.17,42,4145.2,4146.72,3.88,A,mid,0.78,10,0.62,15,0.76,9,0.6,14,-999,31.0,2,1,3,3.0,-1.0,-3.0,0.0,0.0,0.0,10
19,3,3684.17,43,4150.93,4152.45,8.56,B,left,0.72,10,0.68,15,0.88,9,0.58,21,-999,2.0,3,1,2,-3.0,-1.0,3.0,0.0,3.0,0.0,100
19,3,3684.17,44,4161.35,4162.86,6.3,B,mid,0.27,37,0.47,21,0.86,11,-999.0,-999,-999,99.0,1,2,3,0.0,0.0,0.0,0.0,0.0,0.0,100
19,3,3684.17,45,4169.51,4171.03,5.63,B,right,0.72,11,0.62,15,0.7,10,0.6,14,-999,32.0,2,3,1,-3.0,0.0,-3.0,0.0,0.0,0.0,0
19,3,3684.17,46,4176.99,4178.51,5.74,B,mid,0.78,10,0.65,15,0.76,9,0.63,14,-999,32.0,3,2,1,3.0,-1.0,0.0,0.0,-3.0,-1.0,11
19,3,3684.17,47,4184.59,4186.11,8.54,A,left,0.72,11,0.65,15,0.82,8,0.52,20,-999,1.0,1,3,2,-3.0,0.0,0.0,0.0,-3.0,-1.0,0
19,3,3684.17,48,4194.99,4196.5,8.92,C,mid,0.75,10,0.68,14,0.85,8,0.55,20,-999,2.0,3,1,2,0.0,-1.0,3.0,-1.0,0.0,-1.0,110
19,3,3684.17,49,4205.77,4207.28,10.25,A,left,0.72,10,0.65,15,0.85,9,0.55,21,-999,2.0,1,3,2,-3.0,-1.0,0.0,0.0,0.0,0.0,100
19,3,3684.17,50,4217.88,4219.4,11.81,A,left,0.78,10,0.62,14,0.76,9,0.6,13,-999,32.0,1,3,2,3.0,-1.0,-3.0,-1.0,0.0,-1.0,111
19,3,3684.17,51,4231.54,4233.06,7.46,B,right,0.72,11,0.62,14,0.7,10,0.6,13,-999,32.0,2,3,1,-3.0,0.0,-3.0,-1.0,0.0,0.0,111
19,3,3684.17,52,4240.86,4242.37,4.12,C,left,0.75,11,0.62,14,0.88,9,0.58,21,-999,2.0,3,2,1,0.0,0.0,-3.0,-1.0,3.0,0.0,101
19,3,3684.17,53,4246.84,4248.35,7.66,B,mid,0.72,11,0.68,14,0.88,9,0.58,21,-999,2.0,3,2,1,-3.0,0.0,3.0,-1.0,3.0,0.0,1
19,3,3684.17,54,4256.37,4257.88,10.67,A,right,0.28,35,0.67,14,0.78,12,-999.0,-999,-999,99.0,3,1,2,0.0,0.0,0.0,0.0,0.0,0.0,100
19,3,3684.17,55,4268.9,4270.41,6.92,A,mid,0.78,11,0.62,14,0.85,8,0.55,20,-999,1.0,2,1,3,3.0,0.0,-3.0,-1.0,0.0,-1.0,0
19,3,3684.17,56,4277.68,4279.19,8.45,B,right,0.75,10,0.62,15,0.88,9,0.58,21,-999,1.0,2,3,1,0.0,-1.0,-3.0,0.0,3.0,0.0,111
19,3,3684.17,57,4287.99,4289.51,9.64,A,right,0.78,11,0.68,15,0.88,8,0.58,20,-999,1.0,3,2,1,3.0,0.0,3.0,0.0,3.0,-1.0,111
19,3,3684.17,58,4299.49,4301.0,5.16,B,left,0.75,10,0.68,14,0.73,9,0.66,13,-999,32.0,2,1,3,0.0,-1.0,3.0,-1.0,0.0,0.0,101
19,3,3684.17,59,4306.5,4308.02,7.96,A,mid,0.72,10,0.65,15,0.7,9,0.63,14,-999,31.0,2,3,1,-3.0,-1.0,0.0,0.0,3.0,-1.0,101
19,3,3684.17,60,4316.31,4317.83,9.35,A,left,0.75,11,0.62,15,0.88,8,0.58,20,-999,1.0,1,2,3,0.0,0.0,-3.0,0.0,3.0,-1.0,111
19,3,3684.17,61,4327.53,4329.04,9.15,A,right,0.72,11,0.68,15,0.82,8,0.52,20,-999,1.0,3,1,2,-3.0,0.0,3.0,0.0,-3.0,-1.0,100
19,3,3684.17,62,4338.54,4340.06,5.34,C,mid,0.72,10,0.62,14,0.88,9,0.58,21,-999,2.0,1,3,2,-3.0,-1.0,-3.0,-1.0,3.0,0.0,101
19,3,3684.17,63,4345.74,4347.26,5.71,A,left,0.27,37,0.61,16,0.89,11,-999.0,-999,-999,99.0,1,3,2,0.0,0.0,0.0,0.0,0.0,0.0,100
19,3,3684.17,64,4353.3,4354.82,7.7,A,mid,0.75,10,0.68,15,0.88,9,0.58,21,-999,1.0,2,3,1,0.0,-1.0,3.0,0.0,3.0,0.0,101
19,3,3684.17,65,4362.87,4364.38,4.94,A,left,0.75,10,0.62,15,0.73,9,0.6,14,-999,32.0,1,3,2,0.0,-1.0,-3.0,0.0,-3.0,0.0,111
19,3,3684.17,66,4369.66,4371.18,5.33,A,mid,0.75,11,0.65,14,0.73,10,0.63,13,-999,31.0,2,3,1,0.0,0.0,0.0,-1.0,0.0,0.0,10
19,3,3684.17,67,4376.86,4378.38,6.31,C,left,0.72,11,0.62,14,0.85,9,0.55,21,-999,2.0,3,2,1,-3.0,0.0,-3.0,-1.0,0.0,0.0,0
19,3,3684.17,68,4385.03,4386.54,8.96,A,mid,0.72,10,0.65,15,0.7,9,0.63,14,-999,31.0,2,3,1,-3.0,-1.0,0.0,0.0,3.0,-1.0,111
19,3,3684.17,69,4395.84,4397.36,3.48,A,mid,0.19,52,0.56,17,0.8,12,-999.0,-999,-999,99.0,2,3,1,0.0,0.0,0.0,0.0,0.0,0.0,10
19,3,3684.17,70,4401.17,4402.69,12.4,A,left,0.75,11,0.65,14,0.73,10,0.63,13,-999,31.0,1,3,2,0.0,0.0,0.0,-1.0,-3.0,-1.0,11
19,3,3684.17,71,4415.43,4416.95,5.54,A,left,0.72,10,0.65,14,0.7,9,0.63,13,-999,31.0,1,3,2,-3.0,-1.0,0.0,-1.0,3.0,-1.0,0
19,3,3684.17,72,4422.83,4424.35,9.93,B,left,0.75,10,0.65,14,0.73,9,0.63,13,-999,32.0,2,1,3,0.0,-1.0,0.0,-1.0,3.0,0.0,110
19,3,3684.17,73,4434.63,4436.14,4.02,B,left,0.78,11,0.65,15,0.76,10,0.63,14,-999,32.0,2,1,3,3.0,0.0,0.0,0.0,-3.0,-1.0,111
19,3,3684.17,74,4440.51,4442.02,11.53,A,mid,0.78,10,0.62,15,0.85,8,0.55,20,-999,1.0,2,1,3,3.0,-1.0,-3.0,0.0,0.0,-1.0,111
19,3,3684.17,75,4453.89,4455.4,6.08,A,right,0.78,10,0.68,15,0.76,9,0.66,14,-999,31.0,3,1,2,3.0,-1.0,3.0,0.0,0.0,0.0,0
