subject,block,block_onset,trial,fixation_cross_onset,trial_onset,rt,choice,key,pA,mA,pB,mB,pCA,mCA,pCB,mCB,missing,condition,position_A,position_B,position_C,noise_Ap,noise_Am,noise_Bp,noise_Bm,noise_Cp,noise_Cm,attribute_positions
1,Practice,2806.76,P1,2806.83,2808.35,4.09,A,right,0.78,7,0.62,17,0.85,3,0.55,24,-999,2.0,3,1,2,3.0,-2.0,-3.0,2.0,0.0,-1.0,1
1,Practice,2806.76,P2,2812.79,2814.31,3.31,A,left,0.72,7,0.62,16,0.88,5,0.58,26,-999,2.0,1,2,3,-3.0,-2.0,-3.0,1.0,3.0,1.0,10
1,Practice,2806.76,P3,2817.96,2819.48,3.04,C,left,0.75,11,0.68,13,0.85,4,0.55,25,-999,1.0,2,3,1,0.0,2.0,3.0,-2.0,0.0,0.0,110
1,Practice,2806.76,P4,2822.86,2824.37,3.33,C,mid,0.75,9,0.65,15,0.88,5,0.58,26,-999,1.0,3,1,2,0.0,0.0,0.0,0.0,3.0,1.0,100
1,Practice,2806.76,P5,2828.06,2829.57,4.46,A,left,0.72,11,0.62,13,0.85,6,0.55,27,-999,1.0,1,3,2,-3.0,2.0,-3.0,-2.0,0.0,2.0,101
1,Practice,2806.76,P6,2834.37,2835.89,2.96,A,mid,0.78,7,0.62,13,0.82,6,0.52,27,-999,2.0,2,3,1,3.0,-2.0,-3.0,-2.0,-3.0,2.0,110
1,Practice,2806.76,P7,2839.19,2840.7,3.05,A,mid,0.75,7,0.65,17,0.85,5,0.55,26,-999,2.0,2,1,3,0.0,-2.0,0.0,2.0,0.0,1.0,111
1,Practice,2806.76,P8,2844.1,2845.62,3.18,A,right,0.72,8,0.68,15,0.82,6,0.52,27,-999,2.0,3,1,2,-3.0,-1.0,3.0,0.0,-3.0,2.0,110
1,Practice,2806.76,P9,2849.13,2850.65,3.03,C,mid,0.78,8,0.62,16,0.88,5,0.58,26,-999,1.0,3,1,2,3.0,-1.0,-3.0,1.0,3.0,1.0,1
1,Practice,2806.76,P10,2854.01,2855.53,3.19,A,left,0.75,10,0.65,16,0.82,2,0.52,23,-999,2.0,1,2,3,0.0,1.0,0.0,1.0,-3.0,-2.0,101
1,Practice,2806.76,P11,2859.06,2860.58,5.5,A,mid,0.72,8,0.65,15,0.85,5,0.55,26,-999,2.0,2,3,1,-3.0,-1.0,0.0,0.0,0.0,1.0,0
1,Practice,2806.76,P12,2866.41,2867.93,3.46,C,left,0.72,8,0.68,15,0.85,5,0.55,26,-999,1.0,2,3,1,-3.0,-1.0,3.0,0.0,0.0,1.0,101
1,Practice,2806.76,P13,2871.73,2873.24,3.04,C,right,0.78,11,0.68,16,0.88,5,0.58,26,-999,1.0,2,1,3,3.0,2.0,3.0,1.0,3.0,1.0,111
1,Practice,2806.76,P14,2876.62,2878.14,2.02,A,right,0.72,11,0.62,17,0.82,3,0.52,24,-999,2.0,3,2,1,-3.0,2.0,-3.0,2.0,-3.0,-1.0,0
1,Practice,2806.76,P15,2880.49,2882.01,2.37,A,mid,0.78,7,0.68,14,0.88,5,0.58,26,-999,2.0,2,3,1,3.0,-2.0,3.0,-1.0,3.0,1.0,10
1,Practice,2806.76,P16,2884.72,2886.24,2.09,A,mid,0.78,7,0.65,13,0.82,2,0.52,23,-999,2.0,2,1,3,3.0,-2.0,0.0,-2.0,-3.0,-2.0,1
1,Practice,2806.76,P17,2888.67,2890.19,3.22,A,right,0.72,10,0.65,13,0.82,5,0.52,26,-999,2.0,3,2,1,-3.0,1.0,0.0,-2.0,-3.0,1.0,110
1,Practice,2806.76,P18,2893.75,2895.27,3.74,A,right,0.78,7,0.68,13,0.88,2,0.58,23,-999,2.0,3,1,2,3.0,-2.0,3.0,-2.0,3.0,-2.0,10
1,Practice,2806.76,P19,2899.35,2900.87,2.62,A,right,0.78,11,0.62,15,0.85,4,0.55,25,-999,1.0,3,1,2,3.0,2.0,-3.0,0.0,0.0,0.0,110
1,Practice,2806.76,P20,2903.83,2905.35,1.82,C,mid,0.72,7,0.65,14,0.88,4,0.58,25,-999,1.0,1,3,2,-3.0,-2.0,0.0,-1.0,3.0,0.0,11
1,Practice,2806.76,P21,2907.51,2909.03,1.77,C,mid,0.78,9,0.65,16,0.85,2,0.55,23,-999,1.0,3,1,2,3.0,0.0,0.0,1.0,0.0,-2.0,0
1,Practice,2806.76,P22,2911.15,2912.66,1.7,C,mid,0.72,9,0.62,15,0.85,2,0.55,23,-999,1.0,1,3,2,-3.0,0.0,-3.0,0.0,0.0,-2.0,10
1,Practice,2806.76,P23,2914.71,2916.23,1.85,C,mid,0.72,7,0.65,13,0.88,3,0.58,24,-999,1.0,3,1,2,-3.0,-2.0,0.0,-2.0,3.0,-1.0,100
1,Practice,2806.76,P24,2918.41,2919.93,1.81,A,mid,0.78,7,0.65,13,0.82,5,0.52,26,-999,2.0,2,1,3,3.0,-2.0,0.0,-2.0,-3.0,1.0,10
1,Practice,2806.76,P25,2922.09,2923.61,2.32,C,left,0.78,10,0.68,13,0.85,4,0.55,25,-999,1.0,2,3,1,3.0,1.0,3.0,-2.0,0.0,0.0,111
1,Estimation1,2988.16,E1,2988.24,2989.75,3.54,A,mid,0.75,11,0.65,15,0.85,-999,0.55,20,3,,2,1,3,,,,,,,11
1,Estimation1,2988.16,E2,2993.64,2995.15,2.81,B,right,0.75,8,0.65,15,0.85,-999,0.55,20,1,2.0,1,3,2,,,,,,,101
1,Estimation1,2988.16,E3,2998.3,2999.82,1.91,A,right,0.75,8,0.65,15,0.85,-999,0.55,28,3,,3,1,2,,,,,,,100
1,Estimation1,2988.16,E4,3002.08,3003.6,1.88,B,right,0.75,6,0.65,15,0.85,-999,0.55,28,1,2.0,2,3,1,,,,,,,101
1,Estimation1,2988.16,E5,3005.83,3007.35,1.31,A,left,0.75,6,0.65,15,0.85,-999,0.55,32,3,,1,2,3,,,,,,,1
1,Estimation1,2988.16,E6,3009.0,3010.51,1.62,B,left,0.75,5,0.65,15,0.85,-999,0.55,32,1,2.0,2,1,3,,,,,,,101
1,Estimation1,2988.16,E7,3012.48,3014.0,1.56,A,left,0.75,5,0.65,15,0.85,-999,0.55,34,3,,1,2,3,,,,,,,100
1,Estimation1,2988.16,E8,3015.9,3017.41,3.43,B,right,0.75,5,0.65,15,0.85,3,0.55,34,1,2.0,2,3,1,,,,,,,100
1,Estimation1,2988.16,E9,3021.18,3022.69,1.37,C,left,0.75,5,0.65,15,0.85,3,0.55,35,2,1.0,3,2,1,,,,,,,100
1,Estimation1,2988.16,E10,3024.41,3025.93,1.61,B,right,0.75,5,0.65,15,0.85,3,0.55,35,1,2.0,1,3,2,,,,,,,0
1,1,3029.57,1,3029.64,3031.16,5.22,A,left,0.72,4,0.65,15,0.7,3,0.63,14,-999,31.0,1,2,3,-3.0,-1.0,0.0,0.0,3.0,-1.0,1
1,1,3029.57,2,3036.72,3038.24,3.27,C,mid,0.16,62,0.46,21,0.87,11,-999.0,-999,-999,99.0,3,1,2,0.0,0.0,0.0,0.0,0.0,0.0,110
1,1,3029.57,3,3041.85,3043.37,5.78,A,right,0.75,4,0.68,14,0.73,3,0.66,13,-999,32.0,3,2,1,0.0,-1.0,3.0,-1.0,0.0,0.0,101
1,1,3029.57,4,3049.5,3051.02,7.54,C,mid,0.72,4,0.62,14,0.88,3,0.58,35,-999,2.0,1,3,2,-3.0,-1.0,-3.0,-1.0,3.0,0.0,0
1,1,3029.57,5,3058.9,3060.41,4.81,B,right,0.72,5,0.62,15,0.7,4,0.6,14,-999,32.0,1,3,2,-3.0,0.0,-3.0,0.0,3.0,-1.0,0
1,1,3029.57,6,3065.56,3067.08,3.83,A,mid,0.78,4,0.62,15,0.76,3,0.6,14,-999,32.0,2,1,3,3.0,-1.0,-3.0,0.0,-3.0,-1.0,111
1,1,3029.57,7,3071.24,3072.76,9.03,C,mid,0.75,5,0.65,14,0.85,2,0.55,34,-999,2.0,1,3,2,0.0,0.0,0.0,-1.0,0.0,-1.0,110
1,1,3029.57,8,3082.14,3083.66,6.75,B,right,0.72,5,0.68,15,0.82,3,0.52,35,-999,2.0,1,3,2,-3.0,0.0,3.0,0.0,-3.0,0.0,111
1,1,3029.57,9,3090.75,3092.27,6.39,B,mid,0.78,5,0.65,15,0.76,4,0.63,14,-999,32.0,3,2,1,3.0,0.0,0.0,0.0,-3.0,-1.0,111
1,1,3029.57,10,3099.0,3100.52,7.39,B,right,0.75,4,0.62,15,0.88,3,0.58,35,-999,1.0,1,3,2,0.0,-1.0,-3.0,0.0,3.0,0.0,101
1,1,3029.57,11,3108.25,3109.76,5.51,B,mid,0.75,5,0.65,15,0.85,3,0.55,35,-999,1.0,1,2,3,0.0,0.0,0.0,0.0,0.0,0.0,101
1,1,3029.57,12,3115.61,3117.13,3.4,B,mid,0.78,4,0.62,15,0.85,2,0.55,34,-999,1.0,3,2,1,3.0,-1.0,-3.0,0.0,0.0,-1.0,1
1,1,3029.57,13,3120.86,3122.38,5.69,C,mid,0.32,31,0.48,20,0.85,11,-999.0,-999,-999,99.0,1,3,2,0.0,0.0,0.0,0.0,0.0,0.0,100
1,1,3029.57,14,3128.41,3129.92,4.07,B,right,0.78,4,0.68,15,0.85,2,0.55,34,-999,1.0,2,3,1,3.0,-1.0,3.0,0.0,0.0,-1.0,101
1,1,3029.57,15,3134.34,3135.86,3.98,B,mid,0.75,4,0.68,14,0.85,2,0.55,34,-999,2.0,3,2,1,0.0,-1.0,3.0,-1.0,0.0,-1.0,111
1,1,3029.57,16,3140.17,3141.69,7.22,B,right,0.72,5,0.68,15,0.82,2,0.52,34,-999,1.0,1,3,2,-3.0,0.0,3.0,0.0,-3.0,-1.0,101
1,1,3029.57,17,3149.25,3150.77,3.94,B,left,0.72,5,0.68,15,0.82,2,0.52,34,-999,1.0,3,1,2,-3.0,0.0,3.0,0.0,-3.0,-1.0,0
1,1,3029.57,18,3155.05,3156.57,3.87,B,left,0.78,5,0.65,14,0.82,2,0.52,34,-999,1.0,3,1,2,3.0,0.0,0.0,-1.0,-3.0,-1.0,0
1,1,3029.57,19,3160.78,3162.3,4.71,B,left,0.72,4,0.65,14,0.7,3,0.63,13,-999,31.0,3,1,2,-3.0,-1.0,0.0,-1.0,3.0,-1.0,111
1,1,3029.57,20,3167.35,3168.86,5.56,B,left,0.75,5,0.65,15,0.73,4,0.63,14,-999,31.0,3,1,2,0.0,0.0,0.0,0.0,0.0,-1.0,10
1,1,3029.57,21,3174.76,3176.28,9.91,A,right,0.75,5,0.62,14,0.88,3,0.58,35,-999,2.0,3,2,1,0.0,0.0,-3.0,-1.0,3.0,0.0,110
1,1,3029.57,22,3186.54,3188.06,4.25,B,left,0.75,4,0.65,14,0.73,3,0.63,13,-999,32.0,2,1,3,0.0,-1.0,0.0,-1.0,3.0,0.0,0
1,1,3029.57,23,3192.64,3194.15,5.85,B,left,0.72,4,0.68,15,0.88,3,0.58,35,-999,2.0,2,1,3,-3.0,-1.0,3.0,0.0,3.0,0.0,11
1,1,3029.57,24,3200.35,3201.87,8.48,B,left,0.72,4,0.65,15,0.85,3,0.55,35,-999,2.0,2,1,3,-3.0,-1.0,0.0,0.0,0.0,0.0,101
1,1,3029.57,25,3210.7,3212.21,5.42,B,left,0.72,5,0.65,15,0.82,2,0.52,34,-999,2.0,2,1,3,-3.0,0.0,0.0,0.0,-3.0,-1.0,1
1,1,3029.57,26,3217.98,3219.5,8.64,B,right,0.75,5,0.62,15,0.88,2,0.58,34,-999,1.0,2,3,1,0.0,0.0,-3.0,0.0,3.0,-1.0,11
1,1,3029.57,27,3228.49,3230.01,9.81,B,mid,0.72,5,0.65,15,0.82,2,0.52,34,-999,1.0,1,2,3,-3.0,0.0,0.0,0.0,-3.0,-1.0,100
1,1,3029.57,28,3240.16,3241.67,8.88,B,right,0.78,5,0.62,14,0.85,3,0.55,35,-999,2.0,1,3,2,3.0,0.0,-3.0,-1.0,0.0,0.0,11
1,1,3029.57,29,3250.88,3252.4,3.77,C,right,0.27,37,0.47,21,0.86,11,-999.0,-999,-999,99.0,1,2,3,0.0,0.0,0.0,0.0,0.0,0.0,101
1,1,3029.57,30,3256.52,3258.03,8.96,B,mid,0.78,4,0.65,15,0.76,3,0.63,14,-999,32.0,1,2,3,3.0,-1.0,0.0,0.0,-3.0,-1.0,111
1,1,3029.57,31,3267.35,3268.86,6.38,B,left,0.72,5,0.68,14,0.7,4,0.66,13,-999,32.0,2,1,3,-3.0,0.0,3.0,-1.0,0.0,-1.0,101
1,1,3029.57,32,3275.59,3277.11,4.88,B,right,0.72,4,0.68,14,0.7,3,0.66,13,-999,31.0,2,3,1,-3.0,-1.0,3.0,-1.0,-3.0,0.0,100
1,1,3029.57,33,3282.32,3283.84,8.78,B,left,0.72,5,0.62,14,0.85,3,0.55,35,-999,2.0,2,1,3,-3.0,0.0,-3.0,-1.0,0.0,0.0,0
1,1,3029.57,34,3292.95,3294.47,7.3,B,right,0.72,4,0.68,14,0.85,3,0.55,35,-999,2.0,2,3,1,-3.0,-1.0,3.0,-1.0,0.0,0.0,110
1,1,3029.57,35,3302.12,3303.63,4.23,B,mid,0.78,4,0.68,15,0.88,3,0.58,35,-999,1.0,1,2,3,3.0,-1.0,3.0,0.0,3.0,0.0,10
1,1,3029.57,36,3308.2,3309.72,9.15,B,right,0.75,5,0.65,15,0.82,2,0.52,34,-999,1.0,1,3,2,0.0,0.0,0.0,0.0,-3.0,-1.0,100
1,1,3029.57,37,3319.21,3320.73,6.03,B,left,0.72,5,0.62,14,0.85,3,0.55,35,-999,2.0,3,1,2,-3.0,0.0,-3.0,-1.0,0.0,0.0,110
1,1,3029.57,38,3332.76,3334.27,2.96,B,right,0.78,4,0.62,15,0.76,3,0.6,14,-999,31.0,2,3,1,3.0,-1.0,-3.0,0.0,0.0,0.0,0
1,1,3029.57,39,3337.57,3339.09,3.78,B,left,0.78,5,0.68,15,0.88,2,0.58,34,-999,1.0,2,1,3,3.0,0.0,3.0,0.0,3.0,-1.0,111
1,1,3029.57,40,3343.2,3344.72,3.63,C,right,0.24,41,0.37,27,0.76,13,-999.0,-999,-999,99.0,1,2,3,0.0,0.0,0.0,0.0,0.0,0.0,100
1,1,3029.57,41,3348.69,3350.2,4.98,A,left,0.72,5,0.62,15,0.7,4,0.6,14,-999,31.0,1,2,3,-3.0,0.0,-3.0,0.0,0.0,-1.0,110
1,1,3029.57,42,3355.53,3357.05,8.21,B,mid,0.78,4,0.68,15,0.76,3,0.66,14,-999,31.0,1,2,3,3.0,-1.0,3.0,0.0,0.0,0.0,11
1,1,3029.57,43,3365.6,3367.11,5.49,A,right,0.78,5,0.65,15,0.76,4,0.63,14,-999,32.0,3,1,2,3.0,0.0,0.0,0.0,0.0,0.0,110
1,1,3029.57,44,3372.94,3374.46,6.16,C,right,0.32,31,0.6,16,0.78,12,-999.0,-999,-999,99.0,2,1,3,0.0,0.0,0.0,0.0,0.0,0.0,110
1,1,3029.57,45,3380.96,3382.48,3.88,B,right,0.78,5,0.65,14,0.82,2,0.52,34,-999,2.0,1,3,2,3.0,0.0,0.0,-1.0,-3.0,-1.0,1
1,1,3029.57,46,3386.69,3388.21,7.04,A,left,0.75,5,0.65,14,0.73,4,0.63,13,-999,31.0,1,2,3,0.0,0.0,0.0,-1.0,0.0,0.0,110
1,1,3029.57,47,3395.59,3397.1,5.05,B,left,0.72,4,0.65,15,0.7,3,0.63,14,-999,31.0,3,1,2,-3.0,-1.0,0.0,0.0,3.0,-1.0,10
1,1,3029.57,48,3402.5,3404.02,7.86,B,mid,0.72,5,0.65,15,0.7,4,0.63,14,-999,31.0,3,2,1,-3.0,0.0,0.0,0.0,-3.0,-1.0,1
1,1,3029.57,49,3412.23,3413.75,11.29,C,right,0.72,4,0.65,15,0.88,2,0.58,34,-999,2.0,2,1,3,-3.0,-1.0,0.0,0.0,3.0,-1.0,10
1,1,3029.57,50,3425.38,3426.89,7.6,C,left,0.75,4,0.62,15,0.88,2,0.58,34,-999,2.0,2,3,1,0.0,-1.0,-3.0,0.0,3.0,-1.0,11
1,1,3029.57,51,3434.82,3436.34,2.62,B,mid,0.75,4,0.65,15,0.73,3,0.63,14,-999,31.0,1,2,3,0.0,-1.0,0.0,0.0,3.0,-1.0,10
1,1,3029.57,52,3439.31,3440.82,5.1,B,mid,0.75,4,0.62,15,0.73,3,0.6,14,-999,32.0,1,2,3,0.0,-1.0,-3.0,0.0,-3.0,0.0,11
1,1,3029.57,53,3446.27,3447.79,6.26,B,mid,0.75,5,0.65,15,0.73,4,0.63,14,-999,31.0,3,2,1,0.0,0.0,0.0,0.0,0.0,0.0,0
1,1,3029.57,54,3454.38,3455.9,7.0,B,left,0.78,4,0.68,14,0.76,3,0.66,13,-999,32.0,2,1,3,3.0,-1.0,3.0,-1.0,3.0,-1.0,1
1,1,3029.57,55,3463.25,3464.76,3.67,C,right,0.19,52,0.56,17,0.8,12,-999.0,-999,-999,99.0,2,1,3,0.0,0.0,0.0,0.0,0.0,0.0,10
1,1,3029.57,56,3468.78,3470.3,5.1,C,right,0.72,5,0.68,14,0.88,3,0.58,35,-999,2.0,1,2,3,-3.0,0.0,3.0,-1.0,3.0,0.0,0
1,1,3029.57,57,3475.73,3477.24,6.68,C,right,0.28,35,0.67,14,0.78,12,-999.0,-999,-999,99.0,2,1,3,0.0,0.0,0.0,0.0,0.0,0.0,100
1,1,3029.57,58,3484.26,3485.77,4.55,B,mid,0.78,4,0.62,14,0.76,3,0.6,13,-999,32.0,1,2,3,3.0,-1.0,-3.0,-1.0,0.0,-1.0,0
1,1,3029.57,59,3490.66,3492.17,5.87,A,mid,0.75,5,0.65,14,0.73,4,0.63,13,-999,31.0,2,3,1,0.0,0.0,0.0,-1.0,-3.0,-1.0,10
1,1,3029.57,60,3498.39,3499.9,6.71,C,right,0.19,52,0.59,16,0.81,12,-999.0,-999,-999,99.0,1,2,3,0.0,0.0,0.0,0.0,0.0,0.0,101
1,1,3029.57,61,3506.95,3508.47,15.08,B,right,0.72,4,0.62,15,0.7,3,0.6,14,-999,32.0,1,3,2,-3.0,-1.0,-3.0,0.0,-3.0,-1.0,111
1,1,3029.57,62,3523.9,3525.41,4.75,B,left,0.78,5,0.62,15,0.76,4,0.6,14,-999,32.0,2,1,3,3.0,0.0,-3.0,0.0,3.0,0.0,100
1,1,3029.57,63,3530.51,3532.03,5.08,B,left,0.75,4,0.68,14,0.73,3,0.66,13,-999,31.0,3,1,2,0.0,-1.0,3.0,-1.0,0.0,-1.0,110
1,1,3029.57,64,3537.44,3538.96,3.54,B,mid,0.78,5,0.62,14,0.85,2,0.55,34,-999,1.0,3,2,1,3.0,0.0,-3.0,-1.0,0.0,-1.0,1
1,1,3029.57,65,3542.84,3544.36,6.28,B,left,0.72,5,0.65,14,0.7,4,0.63,13,-999,32.0,3,1,2,-3.0,0.0,0.0,-1.0,3.0,0.0,111
1,1,3029.57,66,3550.99,3552.5,7.26,C,left,0.29,34,0.42,23,0.72,13,-999.0,-999,-999,99.0,3,2,1,0.0,0.0,0.0,0.0,0.0,0.0,0
1,1,3029.57,67,3560.1,3561.62,2.93,C,right,0.31,32,0.38,26,0.85,11,-999.0,-999,-999,99.0,1,2,3,0.0,0.0,0.0,0.0,0.0,0.0,0
1,1,3029.57,68,3564.88,3566.4,7.18,C,left,0.27,37,0.61,16,0.89,11,-999.0,-999,-999,99.0,2,3,1,0.0,0.0,0.0,0.0,0.0,0.0,110
1,1,3029.57,69,3573.91,3575.43,6.47,B,left,0.75,4,0.68,15,0.88,3,0.58,35,-999,1.0,2,1,3,0.0,-1.0,3.0,0.0,3.0,0.0,101
1,1,3029.57,70,3582.24,3583.76,5.34,B,left,0.72,5,0.62,14,0.7,4,0.6,13,-999,32.0,2,1,3,-3.0,0.0,-3.0,-1.0,0.0,0.0,111
1,1,3029.57,71,3589.44,3590.96,6.66,B,right,0.78,5,0.65,14,0.82,3,0.52,35,-999,1.0,1,3,2,3.0,0.0,0.0,-1.0,-3.0,0.0,10
1,1,3029.57,72,3597.95,3599.47,3.29,B,mid,0.78,5,0.62,14,0.76,4,0.6,13,-999,31.0,1,2,3,3.0,0.0,-3.0,-1.0,-3.0,0.0,111
1,1,3029.57,73,3603.1,3604.62,2.96,B,left,0.78,5,0.68,15,0.76,4,0.66,14,-999,31.0,3,1,2,3.0,0.0,3.0,0.0,0.0,0.0,111
1,1,3029.57,74,3607.92,3609.43,3.92,B,mid,0.78,5,0.68,15,0.82,3,0.52,35,-999,1.0,3,2,1,3.0,0.0,3.0,0.0,-3.0,0.0,100
1,1,3029.57,75,3613.7,3615.22,3.34,B,left,0.72,5,0.62,15,0.7,4,0.6,14,-999,32.0,3,1,2,-3.0,0.0,-3.0,0.0,0.0,0.0,0
1,Estimation2,3661.83,E1,3661.88,3663.4,3.72,A,left,0.75,11,0.65,15,0.85,-999,0.55,20,3,,1,3,2,,,,,,,110
1,Estimation2,3661.83,E2,3667.45,3668.96,2.59,B,left,0.75,8,0.65,15,0.85,-999,0.55,20,1,2.0,3,1,2,,,,,,,110
1,Estimation2,3661.83,E3,3671.9,3673.41,2.08,B,left,0.75,8,0.65,15,0.85,-999,0.55,28,3,,2,1,3,,,,,,,110
1,Estimation2,3661.83,E4,3675.83,3677.35,4.03,B,mid,0.75,10,0.65,15,0.85,-999,0.55,28,1,2.0,3,2,1,,,,,,,110
1,Estimation2,3661.83,E5,3681.71,3683.23,4.74,A,right,0.75,10,0.65,15,0.85,-999,0.55,32,3,,3,2,1,,,,,,,100
1,Estimation2,3661.83,E6,3688.31,3689.82,5.14,C,right,0.75,9,0.65,15,0.85,-999,0.55,32,1,2.0,2,1,3,,,,,,,110
1,Estimation2,3661.83,E7,3695.31,3696.82,3.16,A,left,0.75,9,0.65,15,0.85,-999,0.55,30,3,,1,2,3,,,,,,,0
1,Estimation2,3661.83,E8,3700.32,3701.84,3.43,C,mid,0.75,9,0.65,15,0.85,5,0.55,30,1,2.0,3,1,2,,,,,,,1
1,Estimation2,3661.83,E9,3705.6,3707.12,7.61,C,mid,0.75,9,0.65,15,0.85,5,0.55,29,2,1.0,1,3,2,,,,,,,1
1,Estimation2,3661.83,E10,3715.07,3716.58,4.06,C,mid,0.75,9,0.65,15,0.85,4,0.55,29,1,2.0,1,3,2,,,,,,,0
1,Estimation2,3661.83,E11,3720.98,3722.5,3.44,A,left,0.75,9,0.65,15,0.85,4,0.55,29,2,1.0,1,2,3,,,,,,,0
1,Estimation2,3661.83,E12,3726.28,3727.8,3.66,C,mid,0.75,9,0.65,15,0.85,5,0.55,29,1,2.0,3,1,2,,,,,,,101
1,Estimation2,3661.83,E13,3731.79,3733.31,5.02,C,mid,0.75,9,0.65,15,0.85,5,0.55,29,2,1.0,3,1,2,,,,,,,10
1,2,3743.98,1,3744.04,3745.56,5.54,A,right,0.78,9,0.65,15,0.76,8,0.63,14,-999,32.0,3,2,1,3.0,0.0,0.0,0.0,-3.0,-1.0,111
1,2,3743.98,2,3751.44,3752.95,6.32,A,right,0.75,9,0.65,15,0.73,8,0.63,14,-999,31.0,3,2,1,0.0,0.0,0.0,0.0,0.0,0.0,110
1,2,3743.98,3,3759.62,3761.13,6.67,B,right,0.72,9,0.65,14,0.7,8,0.63,13,-999,32.0,2,3,1,-3.0,0.0,0.0,-1.0,3.0,0.0,110
1,2,3743.98,4,3768.15,3769.67,5.18,B,left,0.78,9,0.68,15,0.88,4,0.58,28,-999,1.0,3,1,2,3.0,0.0,3.0,0.0,3.0,-1.0,11
1,2,3743.98,5,3775.18,3776.7,4.37,B,mid,0.72,9,0.65,15,0.82,4,0.52,28,-999,1.0,1,2,3,-3.0,0.0,0.0,0.0,-3.0,-1.0,101
1,2,3743.98,6,3781.41,3782.93,2.92,C,mid,0.75,8,0.68,14,0.85,4,0.55,28,-999,2.0,1,3,2,0.0,-1.0,3.0,-1.0,0.0,-1.0,111
1,2,3743.98,7,3786.19,3787.71,3.56,B,left,0.78,8,0.68,14,0.76,7,0.66,13,-999,32.0,2,1,3,3.0,-1.0,3.0,-1.0,3.0,-1.0,11
1,2,3743.98,8,3791.61,3793.12,8.16,C,right,0.27,37,0.47,21,0.86,11,-999.0,-999,-999,99.0,2,1,3,0.0,0.0,0.0,0.0,0.0,0.0,100
1,2,3743.98,9,3801.62,3803.14,8.61,B,mid,0.72,8,0.65,15,0.88,4,0.58,28,-999,2.0,3,2,1,-3.0,-1.0,0.0,0.0,3.0,-1.0,0
1,2,3743.98,10,3812.08,3813.6,8.89,C,left,0.72,9,0.65,15,0.82,4,0.52,28,-999,2.0,2,3,1,-3.0,0.0,0.0,0.0,-3.0,-1.0,111
1,2,3743.98,11,3822.83,3824.35,5.54,B,mid,0.72,8,0.62,15,0.7,7,0.6,14,-999,32.0,3,2,1,-3.0,-1.0,-3.0,0.0,-3.0,-1.0,0
1,2,3743.98,12,3830.23,3831.74,7.9,B,left,0.72,9,0.65,15,0.7,8,0.63,14,-999,31.0,2,1,3,-3.0,0.0,0.0,0.0,-3.0,-1.0,1
1,2,3743.98,13,3839.98,3841.49,4.49,C,left,0.78,9,0.62,14,0.85,5,0.55,29,-999,2.0,3,2,1,3.0,0.0,-3.0,-1.0,0.0,0.0,10
1,2,3743.98,14,3846.32,3847.84,6.26,B,left,0.75,8,0.65,14,0.73,7,0.63,13,-999,32.0,3,1,2,0.0,-1.0,0.0,-1.0,3.0,0.0,110
1,2,3743.98,15,3854.44,3855.95,7.65,C,mid,0.31,32,0.38,26,0.85,11,-999.0,-999,-999,99.0,3,1,2,0.0,0.0,0.0,0.0,0.0,0.0,0
1,2,3743.98,16,3863.93,3865.45,4.83,B,left,0.78,8,0.65,15,0.76,7,0.63,14,-999,32.0,2,1,3,3.0,-1.0,0.0,0.0,-3.0,-1.0,110
1,2,3743.98,17,3870.62,3872.13,4.19,C,mid,0.29,34,0.42,23,0.72,13,-999.0,-999,-999,99.0,3,1,2,0.0,0.0,0.0,0.0,0.0,0.0,110
1,2,3743.98,18,3876.66,3878.18,4.91,C,mid,0.19,52,0.56,17,0.8,12,-999.0,-999,-999,99.0,1,3,2,0.0,0.0,0.0,0.0,0.0,0.0,0
1,2,3743.98,19,3883.43,3884.94,3.98,C,left,0.75,9,0.62,14,0.88,5,0.58,29,-999,2.0,3,2,1,0.0,0.0,-3.0,-1.0,3.0,0.0,1
1,2,3743.98,20,3889.26,3890.78,4.0,C,left,0.32,31,0.48,20,0.85,11,-999.0,-999,-999,99.0,2,3,1,0.0,0.0,0.0,0.0,0.0,0.0,11
1,2,3743.98,21,3895.11,3896.62,8.05,B,right,0.78,8,0.62,15,0.76,7,0.6,14,-999,31.0,1,3,2,3.0,-1.0,-3.0,0.0,0.0,0.0,10
1,2,3743.98,22,3905.0,3906.52,5.62,C,left,0.16,62,0.46,21,0.87,11,-999.0,-999,-999,99.0,3,2,1,0.0,0.0,0.0,0.0,0.0,0.0,10
1,2,3743.98,23,3912.47,3913.98,11.41,B,left,0.78,8,0.68,15,0.88,5,0.58,29,-999,1.0,3,1,2,3.0,-1.0,3.0,0.0,3.0,0.0,11
1,2,3743.98,24,3925.73,3927.25,2.55,B,right,0.75,9,0.65,15,0.82,4,0.52,28,-999,1.0,2,3,1,0.0,0.0,0.0,0.0,-3.0,-1.0,101
1,2,3743.98,25,3930.15,3931.66,4.61,C,left,0.24,41,0.37,27,0.76,13,-999.0,-999,-999,99.0,3,2,1,0.0,0.0,0.0,0.0,0.0,0.0,10
1,2,3743.98,26,3936.61,3938.13,3.25,B,mid,0.78,9,0.68,15,0.82,5,0.52,29,-999,1.0,3,2,1,3.0,0.0,3.0,0.0,-3.0,0.0,111
1,2,3743.98,27,3941.71,3943.23,4.21,C,mid,0.75,8,0.62,15,0.88,4,0.58,28,-999,2.0,3,1,2,0.0,-1.0,-3.0,0.0,3.0,-1.0,10
1,2,3743.98,28,3947.77,3949.29,8.23,C,left,0.27,37,0.61,16,0.89,11,-999.0,-999,-999,99.0,2,3,1,0.0,0.0,0.0,0.0,0.0,0.0,100
1,2,3743.98,29,3957.85,3959.37,3.14,B,mid,0.78,9,0.68,15,0.76,8,0.66,14,-999,31.0,1,2,3,3.0,0.0,3.0,0.0,0.0,0.0,11
1,2,3743.98,30,3962.85,3964.37,3.93,B,right,0.75,8,0.65,15,0.73,7,0.63,14,-999,31.0,2,3,1,0.0,-1.0,0.0,0.0,3.0,-1.0,1
1,2,3743.98,31,3968.63,3970.15,2.93,C,mid,0.78,9,0.65,14,0.82,4,0.52,28,-999,2.0,1,3,2,3.0,0.0,0.0,-1.0,-3.0,-1.0,0
1,2,3743.98,32,3973.42,3974.93,3.88,B,left,0.72,8,0.68,15,0.88,5,0.58,29,-999,2.0,3,1,2,-3.0,-1.0,3.0,0.0,3.0,0.0,100
1,2,3743.98,33,3979.15,3980.66,2.58,B,mid,0.72,9,0.62,14,0.7,8,0.6,13,-999,32.0,1,2,3,-3.0,0.0,-3.0,-1.0,0.0,0.0,0
1,2,3743.98,34,3983.58,3985.09,13.03,C,right,0.32,31,0.6,16,0.78,12,-999.0,-999,-999,99.0,2,1,3,0.0,0.0,0.0,0.0,0.0,0.0,10
1,2,3743.98,35,3998.47,3999.99,4.5,C,mid,0.19,52,0.59,16,0.81,12,-999.0,-999,-999,99.0,1,3,2,0.0,0.0,0.0,0.0,0.0,0.0,111
1,2,3743.98,36,4004.82,4006.34,6.58,A,left,0.78,9,0.65,14,0.82,4,0.52,28,-999,1.0,1,2,3,3.0,0.0,0.0,-1.0,-3.0,-1.0,10
1,2,3743.98,37,4013.25,4014.77,2.89,B,mid,0.72,9,0.68,15,0.82,4,0.52,28,-999,1.0,3,2,1,-3.0,0.0,3.0,0.0,-3.0,-1.0,100
1,2,3743.98,38,4022.73,4024.25,5.24,B,mid,0.78,9,0.62,14,0.85,4,0.55,28,-999,1.0,1,2,3,3.0,0.0,-3.0,-1.0,0.0,-1.0,101
1,2,3743.98,39,4029.83,4031.35,2.66,B,right,0.75,9,0.65,15,0.85,5,0.55,29,-999,1.0,1,3,2,0.0,0.0,0.0,0.0,0.0,0.0,11
1,2,3743.98,40,4034.35,4035.86,3.54,B,right,0.78,8,0.68,15,0.76,7,0.66,14,-999,31.0,1,3,2,3.0,-1.0,3.0,0.0,0.0,0.0,11
1,2,3743.98,41,4039.74,4041.26,3.95,C,mid,0.72,9,0.68,15,0.82,5,0.52,29,-999,2.0,3,1,2,-3.0,0.0,3.0,0.0,-3.0,0.0,111
1,2,3743.98,42,4045.54,4047.06,2.88,B,right,0.78,8,0.62,14,0.76,7,0.6,13,-999,32.0,1,3,2,3.0,-1.0,-3.0,-1.0,0.0,-1.0,111
1,2,3743.98,43,4050.27,4051.79,3.02,B,left,0.72,9,0.68,14,0.7,8,0.66,13,-999,32.0,2,1,3,-3.0,0.0,3.0,-1.0,0.0,-1.0,10
1,2,3743.98,44,4055.14,4056.65,2.4,B,mid,0.75,8,0.68,14,0.73,7,0.66,13,-999,31.0,1,2,3,0.0,-1.0,3.0,-1.0,0.0,-1.0,0
1,2,3743.98,45,4059.39,4060.9,2.6,B,left,0.75,9,0.65,14,0.73,8,0.63,13,-999,31.0,3,1,2,0.0,0.0,0.0,-1.0,-3.0,-1.0,0
1,2,3743.98,46,4063.84,4065.35,2.09,B,mid,0.72,9,0.62,15,0.7,8,0.6,14,-999,32.0,1,2,3,-3.0,0.0,-3.0,0.0,0.0,0.0,100
1,2,3743.98,47,4067.78,4069.3,3.13,C,right,0.75,9,0.65,14,0.85,4,0.55,28,-999,2.0,2,1,3,0.0,0.0,0.0,-1.0,0.0,-1.0,101
1,2,3743.98,48,4072.77,4074.28,7.76,B,mid,0.75,9,0.65,14,0.73,8,0.63,13,-999,31.0,1,2,3,0.0,0.0,0.0,-1.0,0.0,0.0,100
1,2,3743.98,49,4082.38,4083.9,5.48,C,left,0.72,9,0.68,14,0.88,5,0.58,29,-999,2.0,2,3,1,-3.0,0.0,3.0,-1.0,3.0,0.0,11
1,2,3743.98,50,4089.71,4091.23,3.87,B,mid,0.78,9,0.65,15,0.76,8,0.63,14,-999,32.0,3,2,1,3.0,0.0,0.0,0.0,0.0,0.0,11
1,2,3743.98,51,4095.43,4096.94,3.23,B,left,0.75,8,0.68,15,0.88,5,0.58,29,-999,1.0,2,1,3,0.0,-1.0,3.0,0.0,3.0,0.0,10
1,2,3743.98,52,4100.51,4102.02,2.4,B,right,0.72,9,0.68,15,0.82,4,0.52,28,-999,1.0,1,3,2,-3.0,0.0,3.0,0.0,-3.0,-1.0,10
1,2,3743.98,53,4104.76,4106.27,2.63,C,right,0.72,8,0.62,14,0.88,5,0.58,29,-999,2.0,2,1,3,-3.0,-1.0,-3.0,-1.0,3.0,0.0,110
1,2,3743.98,54,4109.24,4110.75,6.08,B,right,0.75,8,0.68,14,0.73,7,0.66,13,-999,32.0,1,3,2,0.0,-1.0,3.0,-1.0,0.0,0.0,0
1,2,3743.98,55,4117.17,4118.68,3.69,C,right,0.28,35,0.67,14,0.78,12,-999.0,-999,-999,99.0,1,2,3,0.0,0.0,0.0,0.0,0.0,0.0,110
1,2,3743.98,56,4122.72,4124.23,4.52,C,left,0.72,9,0.62,14,0.85,5,0.55,29,-999,2.0,2,3,1,-3.0,0.0,-3.0,-1.0,0.0,0.0,111
1,2,3743.98,57,4129.08,4130.6,2.96,B,left,0.72,9,0.62,15,0.7,8,0.6,14,-999,31.0,2,1,3,-3.0,0.0,-3.0,0.0,0.0,-1.0,101
1,2,3743.98,58,4133.9,4135.41,5.25,B,mid,0.78,8,0.62,15,0.76,7,0.6,14,-999,32.0,3,2,1,3.0,-1.0,-3.0,0.0,-3.0,-1.0,100
1,2,3743.98,59,4140.99,4142.51,9.01,B,mid,0.72,8,0.68,14,0.7,7,0.66,13,-999,31.0,1,2,3,-3.0,-1.0,3.0,-1.0,-3.0,0.0,111
1,2,3743.98,60,4151.86,4153.37,4.48,B,mid,0.78,8,0.62,15,0.85,4,0.55,28,-999,1.0,1,2,3,3.0,-1.0,-3.0,0.0,0.0,-1.0,1
1,2,3743.98,61,4158.19,4159.7,2.48,B,mid,0.72,8,0.65,15,0.7,7,0.63,14,-999,31.0,3,2,1,-3.0,-1.0,0.0,0.0,3.0,-1.0,0
1,2,3743.98,62,4162.52,4164.04,4.55,B,right,0.72,9,0.62,15,0.7,8,0.6,14,-999,32.0,2,3,1,-3.0,0.0,-3.0,0.0,3.0,-1.0,10
1,2,3743.98,63,4168.93,4170.45,2.86,B,left,0.75,8,0.62,15,0.73,7,0.6,14,-999,32.0,3,1,2,0.0,-1.0,-3.0,0.0,-3.0,0.0,111
1,2,3743.98,64,4173.65,4175.17,5.07,B,mid,0.78,9,0.62,14,0.76,8,0.6,13,-999,31.0,3,2,1,3.0,0.0,-3.0,-1.0,-3.0,0.0,110
1,2,3743.98,65,4180.58,4182.1,9.71,B,mid,0.72,8,0.65,14,0.7,7,0.63,13,-999,31.0,1,2,3,-3.0,-1.0,0.0,-1.0,3.0,-1.0,100
1,2,3743.98,66,4192.14,4193.66,2.87,B,mid,0.78,9,0.65,14,0.82,5,0.52,29,-999,1.0,1,2,3,3.0,0.0,0.0,-1.0,-3.0,0.0,0
1,2,3743.98,67,4196.88,4198.39,4.64,B,mid,0.78,9,0.62,15,0.76,8,0.6,14,-999,32.0,1,2,3,3.0,0.0,-3.0,0.0,3.0,0.0,10
1,2,3743.98,68,4203.37,4204.89,2.66,C,mid,0.72,9,0.62,14,0.85,5,0.55,29,-999,2.0,3,1,2,-3.0,0.0,-3.0,-1.0,0.0,0.0,0
1,2,3743.98,69,4207.89,4209.4,4.04,C,left,0.72,8,0.68,14,0.85,5,0.55,29,-999,2.0,2,3,1,-3.0,-1.0,3.0,-1.0,0.0,0.0,110
1,2,3743.98,70,4213.79,4215.3,3.05,B,mid,0.75,8,0.62,15,0.88,5,0.58,29,-999,1.0,3,2,1,0.0,-1.0,-3.0,0.0,3.0,0.0,10
1,2,3743.98,71,4218.7,4220.22,2.04,B,mid,0.72,8,0.65,15,0.7,7,0.63,14,-999,31.0,3,2,1,-3.0,-1.0,0.0,0.0,3.0,-1.0,110
1,2,3743.98,72,4222.6,4224.12,2.21,B,left,0.75,9,0.62,15,0.88,4,0.58,28,-999,1.0,3,1,2,0.0,0.0,-3.0,0.0,3.0,-1.0,10
1,2,3743.98,73,4226.67,4228.18,2.89,B,left,0.75,9,0.65,15,0.73,8,0.63,14,-999,31.0,2,1,3,0.0,0.0,0.0,0.0,0.0,-1.0,1
1,2,3743.98,74,4231.41,4232.93,2.58,C,left,0.72,8,0.65,15,0.85,5,0.55,29,-999,2.0,3,2,1,-3.0,-1.0,0.0,0.0,0.0,0.0,110
1,2,3743.98,75,4235.85,4237.36,2.38,B,right,0.78,8,0.68,15,0.85,4,0.55,28,-999,1.0,1,3,2,3.0,-1.0,3.0,0.0,0.0,-1.0,110
1,Estimation3,4284.17,E1,4284.23,4285.75,4.5,A,right,0.75,11,0.65,15,0.85,-999,0.55,20,3,,3,2,1,,,,,,,110
1,Estimation3,4284.17,E2,4290.61,4292.14,2.97,B,mid,0.75,8,0.65,15,0.85,-999,0.55,20,1,2.0,3,2,1,,,,,,,11
1,Estimation3,4284.17,E3,4295.44,4296.96,1.81,B,right,0.75,8,0.65,15,0.85,-999,0.55,28,3,,1,3,2,,,,,,,111
1,Estimation3,4284.17,E4,4299.11,4300.62,3.13,C,mid,0.75,10,0.65,15,0.85,-999,0.55,28,1,2.0,3,1,2,,,,,,,100
1,Estimation3,4284.17,E5,4304.09,4305.61,2.61,B,mid,0.75,10,0.65,15,0.85,-999,0.55,24,3,,3,2,1,,,,,,,11
1,Estimation3,4284.17,E6,4308.56,4310.07,4.25,C,right,0.75,11,0.65,15,0.85,-999,0.55,24,1,2.0,1,2,3,,,,,,,110
1,Estimation3,4284.17,E7,4314.65,4316.17,5.99,A,left,0.75,11,0.65,15,0.85,-999,0.55,22,3,,1,2,3,,,,,,,0
1,Estimation3,4284.17,E8,4322.5,4324.02,7.0,C,left,0.75,11,0.65,15,0.85,6,0.55,22,1,2.0,3,2,1,,,,,,,111
1,Estimation3,4284.17,E9,4331.36,4332.88,3.29,A,right,0.75,11,0.65,15,0.85,6,0.55,21,2,1.0,3,1,2,,,,,,,101
1,Estimation3,4284.17,E10,4336.51,4338.03,7.51,C,right,0.75,11,0.65,15,0.85,8,0.55,21,1,2.0,1,2,3,,,,,,,11
1,Estimation3,4284.17,E11,4345.88,4347.39,4.9,A,right,0.75,11,0.65,15,0.85,8,0.55,21,2,1.0,3,2,1,,,,,,,0
1,Estimation3,4284.17,E12,4352.64,4354.16,7.73,B,right,0.75,11,0.65,15,0.85,9,0.55,21,1,2.0,1,3,2,,,,,,,0
1,Estimation3,4284.17,E13,4362.22,4363.74,2.62,A,mid,0.75,11,0.65,15,0.85,9,0.55,21,2,1.0,2,3,1,,,,,,,10
1,3,4368.55,1,4368.62,4370.14,4.75,B,left,0.75,11,0.65,15,0.73,10,0.63,14,-999,31.0,2,1,3,0.0,0.0,0.0,0.0,0.0,0.0,110
1,3,4368.55,2,4375.22,4376.73,8.94,A,right,0.72,10,0.68,15,0.88,9,0.58,21,-999,2.0,3,2,1,-3.0,-1.0,3.0,0.0,3.0,0.0,111
1,3,4368.55,3,4386.01,4387.53,5.0,A,mid,0.78,11,0.62,14,0.76,10,0.6,13,-999,31.0,2,3,1,3.0,0.0,-3.0,-1.0,-3.0,0.0,111
1,3,4368.55,4,4392.86,4394.38,4.61,A,mid,0.75,11,0.62,14,0.88,9,0.58,21,-999,2.0,2,1,3,0.0,0.0,-3.0,-1.0,3.0,0.0,111
1,3,4368.55,5,4399.33,4400.84,4.12,A,mid,0.72,10,0.65,15,0.85,9,0.55,21,-999,2.0,2,3,1,-3.0,-1.0,0.0,0.0,0.0,0.0,111
1,3,4368.55,6,4405.29,4406.81,3.16,B,mid,0.75,10,0.68,14,0.73,9,0.66,13,-999,31.0,1,2,3,0.0,-1.0,3.0,-1.0,0.0,-1.0,11
1,3,4368.55,7,4410.31,4411.82,4.56,C,mid,0.72,11,0.68,14,0.88,9,0.58,21,-999,2.0,3,1,2,-3.0,0.0,3.0,-1.0,3.0,0.0,111
1,3,4368.55,8,4416.72,4418.24,6.71,B,right,0.78,10,0.68,14,0.76,9,0.66,13,-999,32.0,1,3,2,3.0,-1.0,3.0,-1.0,3.0,-1.0,1
1,3,4368.55,9,4425.28,4426.8,3.34,B,left,0.78,11,0.68,15,0.76,10,0.66,14,-999,31.0,3,1,2,3.0,0.0,3.0,0.0,0.0,0.0,10
1,3,4368.55,10,4430.48,4432.0,8.22,B,mid,0.78,11,0.62,15,0.76,10,0.6,14,-999,32.0,1,2,3,3.0,0.0,-3.0,0.0,3.0,0.0,11
1,3,4368.55,11,4440.56,4442.08,7.4,B,right,0.75,11,0.65,14,0.73,10,0.63,13,-999,31.0,1,3,2,0.0,0.0,0.0,-1.0,0.0,0.0,10
1,3,4368.55,12,4449.81,4451.33,6.15,B,left,0.75,10,0.68,15,0.88,9,0.58,21,-999,1.0,3,1,2,0.0,-1.0,3.0,0.0,3.0,0.0,1
1,3,4368.55,13,4457.81,4459.32,9.26,B,right,0.72,10,0.68,14,0.85,9,0.55,21,-999,2.0,2,3,1,-3.0,-1.0,3.0,-1.0,0.0,0.0,101
1,3,4368.55,14,4468.92,4470.44,2.86,B,mid,0.78,10,0.68,15,0.76,9,0.66,14,-999,31.0,3,2,1,3.0,-1.0,3.0,0.0,0.0,0.0,110
1,3,4368.55,15,4473.63,4475.15,2.89,B,mid,0.72,10,0.65,15,0.7,9,0.63,14,-999,31.0,3,2,1,-3.0,-1.0,0.0,0.0,3.0,-1.0,111
1,3,4368.55,16,4478.38,4479.9,3.35,B,mid,0.78,10,0.62,15,0.76,9,0.6,14,-999,32.0,1,2,3,3.0,-1.0,-3.0,0.0,-3.0,-1.0,1
1,3,4368.55,17,4483.58,4485.1,3.52,A,left,0.72,11,0.65,15,0.82,8,0.52,20,-999,2.0,1,2,3,-3.0,0.0,0.0,0.0,-3.0,-1.0,0
1,3,4368.55,18,4488.95,4490.46,4.28,B,right,0.72,11,0.62,14,0.85,9,0.55,21,-999,2.0,2,3,1,-3.0,0.0,-3.0,-1.0,0.0,0.0,111
1,3,4368.55,19,4495.08,4496.59,8.32,C,mid,0.32,31,0.6,16,0.78,12,-999.0,-999,-999,99.0,1,3,2,0.0,0.0,0.0,0.0,0.0,0.0,11
1,3,4368.55,20,4505.26,4506.77,4.39,B,left,0.72,11,0.62,14,0.7,10,0.6,13,-999,32.0,2,1,3,-3.0,0.0,-3.0,-1.0,0.0,0.0,11
1,3,4368.55,21,4511.51,4513.02,6.05,B,mid,0.78,11,0.62,14,0.85,8,0.55,20,-999,1.0,1,2,3,3.0,0.0,-3.0,-1.0,0.0,-1.0,110
1,3,4368.55,22,4519.4,4520.92,8.18,C,mid,0.19,52,0.59,16,0.81,12,-999.0,-999,-999,99.0,3,1,2,0.0,0.0,0.0,0.0,0.0,0.0,10
1,3,4368.55,23,4529.43,4530.95,4.86,B,left,0.72,11,0.68,15,0.82,8,0.52,20,-999,1.0,2,1,3,-3.0,0.0,3.0,0.0,-3.0,-1.0,100
1,3,4368.55,24,4536.15,4537.66,12.17,B,mid,0.78,11,0.68,15,0.82,9,0.52,21,-999,1.0,1,2,3,3.0,0.0,3.0,0.0,-3.0,0.0,11
1,3,4368.55,25,4550.18,4551.69,3.7,B,right,0.75,11,0.62,15,0.88,8,0.58,20,-999,1.0,1,3,2,0.0,0.0,-3.0,0.0,3.0,-1.0,111
1,3,4368.55,26,4555.72,4557.24,9.84,B,right,0.75,11,0.65,15,0.82,8,0.52,20,-999,1.0,2,3,1,0.0,0.0,0.0,0.0,-3.0,-1.0,11
1,3,4368.55,27,4567.42,4568.94,3.86,A,mid,0.75,11,0.65,14,0.73,10,0.63,13,-999,31.0,2,3,1,0.0,0.0,0.0,-1.0,-3.0,-1.0,10
1,3,4368.55,28,4573.14,4574.65,3.7,B,mid,0.72,10,0.62,15,0.7,9,0.6,14,-999,32.0,3,2,1,-3.0,-1.0,-3.0,0.0,-3.0,-1.0,101
1,3,4368.55,29,4578.7,4580.22,2.9,C,left,0.29,34,0.42,23,0.72,13,-999.0,-999,-999,99.0,3,2,1,0.0,0.0,0.0,0.0,0.0,0.0,111
1,3,4368.55,30,4583.45,4584.97,8.73,C,mid,0.78,10,0.62,15,0.85,8,0.55,20,-999,1.0,3,1,2,3.0,-1.0,-3.0,0.0,0.0,-1.0,10
1,3,4368.55,31,4594.03,4595.54,8.16,A,mid,0.75,11,0.65,14,0.85,8,0.55,20,-999,2.0,2,1,3,0.0,0.0,0.0,-1.0,0.0,-1.0,110
1,3,4368.55,32,4604.04,4605.56,4.21,B,right,0.72,11,0.68,15,0.82,9,0.52,21,-999,2.0,1,3,2,-3.0,0.0,3.0,0.0,-3.0,0.0,0
1,3,4368.55,33,4610.11,4611.62,7.01,B,right,0.72,11,0.65,14,0.7,10,0.63,13,-999,32.0,2,3,1,-3.0,0.0,0.0,-1.0,3.0,0.0,11
1,3,4368.55,34,4618.97,4620.49,3.17,B,mid,0.72,11,0.62,15,0.7,10,0.6,14,-999,32.0,1,2,3,-3.0,0.0,-3.0,0.0,3.0,-1.0,11
1,3,4368.55,35,4623.99,4625.5,5.43,A,right,0.78,10,0.62,14,0.76,9,0.6,13,-999,32.0,3,1,2,3.0,-1.0,-3.0,-1.0,0.0,-1.0,110
1,3,4368.55,36,4631.27,4632.78,7.64,B,left,0.72,10,0.65,14,0.7,9,0.63,13,-999,31.0,3,1,2,-3.0,-1.0,0.0,-1.0,3.0,-1.0,10
1,3,4368.55,37,4640.76,4642.28,14.72,B,right,0.75,11,0.65,15,0.73,10,0.63,14,-999,31.0,1,3,2,0.0,0.0,0.0,0.0,0.0,-1.0,1
1,3,4368.55,38,4661.41,4662.92,4.6,C,right,0.19,52,0.56,17,0.8,12,-999.0,-999,-999,99.0,2,1,3,0.0,0.0,0.0,0.0,0.0,0.0,11
1,3,4368.55,39,4667.85,4669.37,4.22,C,mid,0.32,31,0.48,20,0.85,11,-999.0,-999,-999,99.0,1,3,2,0.0,0.0,0.0,0.0,0.0,0.0,110
1,3,4368.55,40,4673.94,4675.45,3.77,B,left,0.75,10,0.65,15,0.73,9,0.63,14,-999,31.0,2,1,3,0.0,-1.0,0.0,0.0,3.0,-1.0,100
1,3,4368.55,41,4679.55,4681.07,14.2,A,mid,0.78,11,0.62,14,0.85,9,0.55,21,-999,2.0,2,3,1,3.0,0.0,-3.0,-1.0,0.0,0.0,10
1,3,4368.55,42,4695.61,4697.13,3.19,C,left,0.24,41,0.37,27,0.76,13,-999.0,-999,-999,99.0,3,2,1,0.0,0.0,0.0,0.0,0.0,0.0,1
1,3,4368.55,43,4700.66,4702.18,7.23,A,mid,0.75,10,0.65,14,0.73,9,0.63,13,-999,32.0,2,1,3,0.0,-1.0,0.0,-1.0,3.0,0.0,10
1,3,4368.55,44,4709.74,4711.26,4.67,B,left,0.78,11,0.65,15,0.76,10,0.63,14,-999,32.0,3,1,2,3.0,0.0,0.0,0.0,0.0,0.0,100
1,3,4368.55,45,4716.27,4717.79,3.75,A,left,0.72,11,0.62,14,0.85,9,0.55,21,-999,2.0,1,2,3,-3.0,0.0,-3.0,-1.0,0.0,0.0,100
1,3,4368.55,46,4721.87,4723.39,5.37,A,mid,0.72,10,0.62,14,0.88,9,0.58,21,-999,2.0,2,3,1,-3.0,-1.0,-3.0,-1.0,3.0,0.0,0
1,3,4368.55,47,4729.1,4730.62,11.54,B,mid,0.72,11,0.65,15,0.7,10,0.63,14,-999,31.0,3,2,1,-3.0,0.0,0.0,0.0,-3.0,-1.0,11
1,3,4368.55,48,4742.5,4744.01,2.71,C,mid,0.31,32,0.38,26,0.85,11,-999.0,-999,-999,99.0,1,3,2,0.0,0.0,0.0,0.0,0.0,0.0,0
1,3,4368.55,49,4747.06,4748.58,10.54,A,right,0.78,11,0.65,15,0.76,10,0.63,14,-999,32.0,3,1,2,3.0,0.0,0.0,0.0,-3.0,-1.0,110
1,3,4368.55,50,4759.46,4760.97,6.61,B,right,0.75,10,0.68,14,0.85,8,0.55,20,-999,2.0,1,3,2,0.0,-1.0,3.0,-1.0,0.0,-1.0,100
1,3,4368.55,51,4767.92,4769.44,9.65,A,left,0.78,11,0.65,14,0.82,8,0.52,20,-999,2.0,1,3,2,3.0,0.0,0.0,-1.0,-3.0,-1.0,111
1,3,4368.55,52,4779.43,4780.95,3.01,C,left,0.16,62,0.46,21,0.87,11,-999.0,-999,-999,99.0,2,3,1,0.0,0.0,0.0,0.0,0.0,0.0,111
1,3,4368.55,53,4784.3,4785.82,8.54,A,right,0.72,11,0.65,15,0.82,8,0.52,20,-999,1.0,3,2,1,-3.0,0.0,0.0,0.0,-3.0,-1.0,101
1,3,4368.55,54,4794.7,4796.21,4.47,A,right,0.78,10,0.68,15,0.85,8,0.55,20,-999,1.0,3,2,1,3.0,-1.0,3.0,0.0,0.0,-1.0,1
1,3,4368.55,55,4801.03,4802.54,9.5,C,mid,0.75,11,0.65,15,0.85,9,0.55,21,-999,1.0,3,1,2,0.0,0.0,0.0,0.0,0.0,0.0,100
1,3,4368.55,56,4812.39,4813.91,4.08,A,mid,0.78,11,0.65,14,0.82,8,0.52,20,-999,1.0,2,1,3,3.0,0.0,0.0,-1.0,-3.0,-1.0,0
1,3,4368.55,57,4818.32,4819.84,5.34,B,right,0.72,11,0.68,15,0.82,8,0.52,20,-999,1.0,2,3,1,-3.0,0.0,3.0,0.0,-3.0,-1.0,111
1,3,4368.55,58,4825.52,4827.04,6.29,B,mid,0.78,10,0.65,15,0.76,9,0.63,14,-999,32.0,3,2,1,3.0,-1.0,0.0,0.0,-3.0,-1.0,111
1,3,4368.55,59,4833.67,4835.18,5.7,C,right,0.72,10,0.68,14,0.7,9,0.66,13,-999,31.0,2,1,3,-3.0,-1.0,3.0,-1.0,-3.0,0.0,101
1,3,4368.55,60,4841.21,4842.73,12.59,A,mid,0.75,10,0.62,15,0.88,9,0.58,21,-999,1.0,2,3,1,0.0,-1.0,-3.0,0.0,3.0,0.0,101
1,3,4368.55,61,4855.66,4857.18,5.5,C,right,0.78,10,0.68,15,0.88,9,0.58,21,-999,1.0,1,2,3,3.0,-1.0,3.0,0.0,3.0,0.0,111
1,3,4368.55,62,4863.01,4864.52,8.12,A,right,0.72,11,0.62,15,0.7,10,0.6,14,-999,31.0,3,1,2,-3.0,0.0,-3.0,0.0,0.0,-1.0,100
1,3,4368.55,63,4872.99,4874.5,6.26,B,right,0.72,10,0.65,15,0.88,8,0.58,20,-999,2.0,1,3,2,-3.0,-1.0,0.0,0.0,3.0,-1.0,101
1,3,4368.55,64,4881.1,4882.62,4.72,B,right,0.78,11,0.68,15,0.88,8,0.58,20,-999,1.0,1,3,2,3.0,0.0,3.0,0.0,3.0,-1.0,100
1,3,4368.55,65,4887.68,4889.2,11.82,C,left,0.27,37,0.47,21,0.86,11,-999.0,-999,-999,99.0,2,3,1,0.0,0.0,0.0,0.0,0.0,0.0,101
1,3,4368.55,66,4901.36,4902.88,7.27,B,right,0.72,11,0.68,14,0.7,10,0.66,13,-999,32.0,1,3,2,-3.0,0.0,3.0,-1.0,0.0,-1.0,111
1,3,4368.55,67,4910.49,4912.01,13.23,A,mid,0.75,10,0.62,15,0.88,8,0.58,20,-999,2.0,2,3,1,0.0,-1.0,-3.0,0.0,3.0,-1.0,10
1,3,4368.55,68,4925.59,4927.1,12.41,A,right,0.78,10,0.62,15,0.76,9,0.6,14,-999,31.0,3,2,1,3.0,-1.0,-3.0,0.0,0.0,0.0,0
1,3,4368.55,69,4939.85,4941.37,5.03,C,left,0.27,37,0.61,16,0.89,11,-999.0,-999,-999,99.0,2,3,1,0.0,0.0,0.0,0.0,0.0,0.0,111
1,3,4368.55,70,4946.75,4948.26,5.84,B,right,0.72,10,0.65,15,0.7,9,0.63,14,-999,31.0,2,3,1,-3.0,-1.0,0.0,0.0,3.0,-1.0,10
1,3,4368.55,71,4954.44,4955.96,11.53,B,right,0.72,11,0.62,15,0.7,10,0.6,14,-999,32.0,1,3,2,-3.0,0.0,-3.0,0.0,0.0,0.0,11
1,3,4368.55,72,4967.82,4969.34,4.59,B,right,0.75,10,0.62,15,0.73,9,0.6,14,-999,32.0,1,3,2,0.0,-1.0,-3.0,0.0,-3.0,0.0,0
1,3,4368.55,73,4974.27,4975.79,7.69,C,right,0.28,35,0.67,14,0.78,12,-999.0,-999,-999,99.0,2,1,3,0.0,0.0,0.0,0.0,0.0,0.0,110
1,3,4368.55,74,4983.82,4985.33,5.59,A,mid,0.78,11,0.65,14,0.82,9,0.52,21,-999,1.0,2,1,3,3.0,0.0,0.0,-1.0,-3.0,0.0,111
1,3,4368.55,75,4991.27,4992.78,8.7,B,left,0.75,10,0.68,14,0.73,9,0.66,13,-999,32.0,2,1,3,0.0,-1.0,3.0,-1.0,0.0,0.0,111
