subject,block,block_onset,trial,fixation_cross_onset,trial_onset,rt,choice,key,pA,mA,pB,mB,pCA,mCA,pCB,mCB,missing,condition,position_A,position_B,position_C,noise_Ap,noise_Am,noise_Bp,noise_Bm,noise_Cp,noise_Cm,attribute_positions
23,Practice,1060.11,P1,1060.16,1061.68,6.42,B,left,0.78,7,0.62,17,0.85,3,0.55,24,-999,2.0,3,1,2,3.0,-2.0,-3.0,2.0,0.0,-1.0,1
23,Practice,1060.11,P2,1068.44,1069.96,5.34,B,mid,0.72,7,0.62,16,0.88,5,0.58,26,-999,2.0,1,2,3,-3.0,-2.0,-3.0,1.0,3.0,1.0,10
23,Practice,1060.11,P3,1075.65,1077.17,6.28,B,right,0.75,11,0.68,13,0.85,4,0.55,25,-999,1.0,2,3,1,0.0,2.0,3.0,-2.0,0.0,0.0,110
23,Practice,1060.11,P4,1083.79,1085.3,16.31,B,left,0.75,9,0.65,15,0.88,5,0.58,26,-999,1.0,3,1,2,0.0,0.0,0.0,0.0,3.0,1.0,100
23,Practice,1060.11,P5,1101.95,1103.46,6.09,A,left,0.72,11,0.62,13,0.85,6,0.55,27,-999,1.0,1,3,2,-3.0,2.0,-3.0,-2.0,0.0,2.0,101
23,Practice,1060.11,P6,1109.89,1111.41,4.77,C,left,0.78,7,0.62,13,0.82,6,0.52,27,-999,2.0,2,3,1,3.0,-2.0,-3.0,-2.0,-3.0,2.0,110
23,Practice,1060.11,P7,1116.52,1118.04,7.33,C,right,0.75,7,0.65,17,0.85,5,0.55,26,-999,2.0,2,1,3,0.0,-2.0,0.0,2.0,0.0,1.0,111
23,Practice,1060.11,P8,1125.71,1127.22,6.3,C,mid,0.72,8,0.68,15,0.82,6,0.52,27,-999,2.0,3,1,2,-3.0,-1.0,3.0,0.0,-3.0,2.0,110
23,Practice,1060.11,P9,1133.87,1135.39,5.07,B,left,0.78,8,0.62,16,0.88,5,0.58,26,-999,1.0,3,1,2,3.0,-1.0,-3.0,1.0,3.0,1.0,1
23,Practice,1060.11,P10,1140.8,1142.32,14.45,C,right,0.75,10,0.65,16,0.82,2,0.52,23,-999,2.0,1,2,3,0.0,1.0,0.0,1.0,-3.0,-2.0,101
23,Practice,1060.11,P11,1157.09,1158.61,7.34,A,mid,0.72,8,0.65,15,0.85,5,0.55,26,-999,2.0,2,3,1,-3.0,-1.0,0.0,0.0,0.0,1.0,0
23,Practice,1060.11,P12,1166.29,1167.81,3.94,B,right,0.72,8,0.68,15,0.85,5,0.55,26,-999,1.0,2,3,1,-3.0,-1.0,3.0,0.0,0.0,1.0,101
23,Practice,1060.11,P13,1172.09,1173.61,4.28,B,left,0.78,11,0.68,16,0.88,5,0.58,26,-999,1.0,2,1,3,3.0,2.0,3.0,1.0,3.0,1.0,111
23,Practice,1060.11,P14,1178.22,1179.74,5.75,C,left,0.72,11,0.62,17,0.82,3,0.52,24,-999,2.0,3,2,1,-3.0,2.0,-3.0,2.0,-3.0,-1.0,0
23,Practice,1060.11,P15,1185.82,1187.34,4.97,C,left,0.78,7,0.68,14,0.88,5,0.58,26,-999,2.0,2,3,1,3.0,-2.0,3.0,-1.0,3.0,1.0,10
23,Practice,1060.11,P16,1192.65,1194.17,5.04,C,right,0.78,7,0.65,13,0.82,2,0.52,23,-999,2.0,2,1,3,3.0,-2.0,0.0,-2.0,-3.0,-2.0,1
23,Practice,1060.11,P17,1199.55,1201.06,6.33,C,left,0.72,10,0.65,13,0.82,5,0.52,26,-999,2.0,3,2,1,-3.0,1.0,0.0,-2.0,-3.0,1.0,110
23,Practice,1060.11,P18,1207.75,1209.26,4.91,C,mid,0.78,7,0.68,13,0.88,2,0.58,23,-999,2.0,3,1,2,3.0,-2.0,3.0,-2.0,3.0,-2.0,10
23,Practice,1060.11,P19,1214.51,1216.03,6.46,B,left,0.78,11,0.62,15,0.85,4,0.55,25,-999,1.0,3,1,2,3.0,2.0,-3.0,0.0,0.0,0.0,110
23,Practice,1060.11,P20,1222.82,1224.34,7.17,B,right,0.72,7,0.65,14,0.88,4,0.58,25,-999,1.0,1,3,2,-3.0,-2.0,0.0,-1.0,3.0,0.0,11
23,Practice,1060.11,P21,1231.85,1233.37,5.43,A,right,0.78,9,0.65,16,0.85,2,0.55,23,-999,1.0,3,1,2,3.0,0.0,0.0,1.0,0.0,-2.0,0
23,Practice,1060.11,P22,1239.15,1240.67,5.44,B,right,0.72,9,0.62,15,0.85,2,0.55,23,-999,1.0,1,3,2,-3.0,0.0,-3.0,0.0,0.0,-2.0,10
23,Practice,1060.11,P23,1246.45,1247.97,7.56,A,right,0.72,7,0.65,13,0.88,3,0.58,24,-999,1.0,3,1,2,-3.0,-2.0,0.0,-2.0,3.0,-1.0,100
23,Practice,1060.11,P24,1255.86,1257.38,2.77,C,right,0.78,7,0.65,13,0.82,5,0.52,26,-999,2.0,2,1,3,3.0,-2.0,0.0,-2.0,-3.0,1.0,10
23,Practice,1060.11,P25,1260.49,1262.01,3.81,B,right,0.78,10,0.68,13,0.85,4,0.55,25,-999,1.0,2,3,1,3.0,1.0,3.0,-2.0,0.0,0.0,111
23,Estimation1,1399.19,E1,1399.25,1400.77,3.21,A,mid,0.75,11,0.65,15,0.85,-999,0.55,20,3,,2,1,3,,,,,,,11
23,Estimation1,1399.19,E2,1404.31,1405.83,5.46,C,mid,0.75,8,0.65,15,0.85,-999,0.55,20,1,2.0,1,3,2,,,,,,,101
23,Estimation1,1399.19,E3,1411.63,1413.15,4.05,B,left,0.75,8,0.65,15,0.85,-999,0.55,18,3,,3,1,2,,,,,,,100
23,Estimation1,1399.19,E4,1417.54,1419.06,5.23,B,right,0.75,10,0.65,15,0.85,-999,0.55,18,1,2.0,2,3,1,,,,,,,101
23,Estimation1,1399.19,E5,1424.62,1426.14,5.28,B,mid,0.75,10,0.65,15,0.85,-999,0.55,19,3,,1,2,3,,,,,,,1
23,Estimation1,1399.19,E6,1431.76,1433.27,5.41,B,left,0.75,11,0.65,15,0.85,-999,0.55,19,1,2.0,2,1,3,,,,,,,101
23,Estimation1,1399.19,E7,1439.02,1440.54,4.49,B,mid,0.75,11,0.65,15,0.85,-999,0.55,20,3,,1,2,3,,,,,,,100
23,Estimation1,1399.19,E8,1445.37,1446.88,6.25,C,left,0.75,11,0.65,15,0.85,6,0.55,20,1,2.0,2,3,1,,,,,,,100
23,Estimation1,1399.19,E9,1453.48,1455.0,3.3,A,right,0.75,11,0.65,15,0.85,6,0.55,20,2,1.0,3,2,1,,,,,,,100
23,Estimation1,1399.19,E10,1458.65,1460.16,7.78,C,mid,0.75,11,0.65,15,0.85,8,0.55,20,1,2.0,1,3,2,,,,,,,0
23,Estimation1,1399.19,E11,1468.28,1469.79,4.53,A,left,0.75,11,0.65,15,0.85,8,0.55,20,2,1.0,1,2,3,,,,,,,101
23,Estimation1,1399.19,E12,1474.68,1476.19,2.62,C,right,0.75,11,0.65,15,0.85,9,0.55,20,1,2.0,2,1,3,,,,,,,110
23,Estimation1,1399.19,E13,1479.14,1480.66,3.95,A,mid,0.75,11,0.65,15,0.85,9,0.55,20,2,1.0,2,1,3,,,,,,,11
23,1,1489.32,1,1489.39,1490.9,8.33,A,left,0.31,32,0.38,26,0.85,11,-999.0,-999,-999,99.0,1,3,2,0.0,0.0,0.0,0.0,0.0,0.0,0
23,1,1489.32,2,1499.58,1501.1,9.3,B,right,0.78,11,0.68,15,0.82,9,0.52,20,-999,1.0,1,3,2,3.0,0.0,3.0,0.0,-3.0,0.0,0
23,1,1489.32,3,1510.73,1512.25,4.7,A,mid,0.72,11,0.62,14,0.7,10,0.6,13,-999,32.0,2,1,3,-3.0,0.0,-3.0,-1.0,0.0,0.0,111
23,1,1489.32,4,1517.3,1518.81,6.26,A,left,0.75,10,0.68,14,0.73,9,0.66,13,-999,31.0,1,3,2,0.0,-1.0,3.0,-1.0,0.0,-1.0,110
23,1,1489.32,5,1525.41,1526.93,5.23,A,left,0.27,37,0.61,16,0.89,11,-999.0,-999,-999,99.0,1,3,2,0.0,0.0,0.0,0.0,0.0,0.0,111
23,1,1489.32,6,1532.49,1534.01,9.02,C,left,0.32,31,0.6,16,0.78,12,-999.0,-999,-999,99.0,3,2,1,0.0,0.0,0.0,0.0,0.0,0.0,111
23,1,1489.32,7,1543.37,1544.89,6.07,C,mid,0.78,10,0.68,15,0.88,9,0.58,20,-999,1.0,1,3,2,3.0,-1.0,3.0,0.0,3.0,0.0,101
23,1,1489.32,8,1551.3,1552.82,5.35,B,mid,0.72,11,0.62,15,0.7,10,0.6,14,-999,31.0,1,2,3,-3.0,0.0,-3.0,0.0,0.0,-1.0,101
23,1,1489.32,9,1558.5,1560.01,5.97,A,right,0.75,11,0.65,14,0.73,10,0.63,13,-999,31.0,3,2,1,0.0,0.0,0.0,-1.0,0.0,0.0,1
23,1,1489.32,10,1566.31,1567.83,4.44,B,right,0.75,10,0.62,15,0.88,9,0.58,20,-999,1.0,1,3,2,0.0,-1.0,-3.0,0.0,3.0,0.0,100
23,1,1489.32,11,1572.61,1574.13,3.93,B,right,0.78,11,0.68,15,0.76,10,0.66,14,-999,31.0,2,3,1,3.0,0.0,3.0,0.0,0.0,0.0,101
23,1,1489.32,12,1578.39,1579.91,9.25,B,mid,0.27,37,0.47,21,0.86,11,-999.0,-999,-999,99.0,3,2,1,0.0,0.0,0.0,0.0,0.0,0.0,111
23,1,1489.32,13,1589.51,1591.02,5.13,B,right,0.78,11,0.65,15,0.76,10,0.63,14,-999,32.0,1,3,2,3.0,0.0,0.0,0.0,0.0,0.0,101
23,1,1489.32,14,1596.49,1598.0,6.89,B,left,0.72,11,0.65,14,0.7,10,0.63,13,-999,32.0,3,1,2,-3.0,0.0,0.0,-1.0,3.0,0.0,0
23,1,1489.32,15,1605.23,1606.75,4.44,A,right,0.72,11,0.68,15,0.82,8,0.52,19,-999,1.0,3,1,2,-3.0,0.0,3.0,0.0,-3.0,-1.0,0
23,1,1489.32,16,1611.53,1613.05,6.46,C,mid,0.72,11,0.68,15,0.82,9,0.52,20,-999,2.0,3,1,2,-3.0,0.0,3.0,0.0,-3.0,0.0,111
23,1,1489.32,17,1619.85,1621.36,7.44,C,mid,0.72,10,0.65,15,0.88,8,0.58,19,-999,2.0,3,1,2,-3.0,-1.0,0.0,0.0,3.0,-1.0,10
23,1,1489.32,18,1629.14,1630.66,10.51,B,mid,0.72,10,0.62,15,0.7,9,0.6,14,-999,32.0,3,2,1,-3.0,-1.0,-3.0,0.0,-3.0,-1.0,110
23,1,1489.32,19,1641.5,1643.02,4.6,B,left,0.78,10,0.68,15,0.85,8,0.55,19,-999,1.0,2,1,3,3.0,-1.0,3.0,0.0,0.0,-1.0,0
23,1,1489.32,20,1647.95,1649.47,8.75,A,mid,0.72,11,0.65,15,0.7,10,0.63,14,-999,31.0,2,1,3,-3.0,0.0,0.0,0.0,-3.0,-1.0,11
23,1,1489.32,21,1658.57,1660.08,7.72,A,mid,0.78,11,0.65,14,0.82,8,0.52,19,-999,1.0,2,1,3,3.0,0.0,0.0,-1.0,-3.0,-1.0,101
23,1,1489.32,22,1668.15,1669.66,5.45,B,left,0.75,11,0.65,15,0.85,9,0.55,20,-999,1.0,2,1,3,0.0,0.0,0.0,0.0,0.0,0.0,1
23,1,1489.32,23,1675.44,1676.96,6.65,B,right,0.72,11,0.68,15,0.82,8,0.52,19,-999,1.0,2,3,1,-3.0,0.0,3.0,0.0,-3.0,-1.0,11
23,1,1489.32,24,1683.96,1685.47,5.95,B,mid,0.75,11,0.65,15,0.82,8,0.52,19,-999,1.0,1,2,3,0.0,0.0,0.0,0.0,-3.0,-1.0,100
23,1,1489.32,25,1691.77,1693.29,5.39,B,right,0.72,11,0.62,15,0.7,10,0.6,14,-999,32.0,1,3,2,-3.0,0.0,-3.0,0.0,0.0,0.0,11
23,1,1489.32,26,1699.02,1700.54,8.4,B,mid,0.75,11,0.65,15,0.73,10,0.63,14,-999,31.0,1,2,3,0.0,0.0,0.0,0.0,0.0,-1.0,101
23,1,1489.32,27,1709.27,1710.78,3.66,C,right,0.72,10,0.62,14,0.88,9,0.58,20,-999,2.0,1,2,3,-3.0,-1.0,-3.0,-1.0,3.0,0.0,111
23,1,1489.32,28,1714.78,1716.3,12.11,B,left,0.78,11,0.65,14,0.82,8,0.52,19,-999,2.0,2,1,3,3.0,0.0,0.0,-1.0,-3.0,-1.0,101
23,1,1489.32,29,1728.74,1730.26,7.71,A,mid,0.75,11,0.62,15,0.88,8,0.58,19,-999,1.0,2,3,1,0.0,0.0,-3.0,0.0,3.0,-1.0,100
23,1,1489.32,30,1738.31,1739.82,6.06,B,left,0.72,11,0.65,15,0.82,8,0.52,19,-999,1.0,2,1,3,-3.0,0.0,0.0,0.0,-3.0,-1.0,0
23,1,1489.32,31,1746.22,1747.74,5.71,C,left,0.72,10,0.68,15,0.88,9,0.58,20,-999,2.0,2,3,1,-3.0,-1.0,3.0,0.0,3.0,0.0,110
23,1,1489.32,32,1753.8,1755.32,6.04,A,left,0.19,52,0.59,16,0.81,12,-999.0,-999,-999,99.0,1,2,3,0.0,0.0,0.0,0.0,0.0,0.0,10
23,1,1489.32,33,1761.7,1763.22,9.87,C,mid,0.75,10,0.65,14,0.73,9,0.63,13,-999,32.0,1,3,2,0.0,-1.0,0.0,-1.0,3.0,0.0,100
23,1,1489.32,34,1773.43,1774.94,6.51,A,right,0.75,11,0.62,14,0.88,9,0.58,20,-999,2.0,3,1,2,0.0,0.0,-3.0,-1.0,3.0,0.0,110
23,1,1489.32,35,1781.79,1783.31,6.48,B,right,0.72,11,0.65,15,0.82,8,0.52,19,-999,2.0,2,3,1,-3.0,0.0,0.0,0.0,-3.0,-1.0,0
23,1,1489.32,36,1790.14,1791.66,9.94,A,mid,0.29,34,0.42,23,0.72,13,-999.0,-999,-999,99.0,2,1,3,0.0,0.0,0.0,0.0,0.0,0.0,111
23,1,1489.32,37,1801.94,1803.45,8.25,B,mid,0.78,10,0.68,15,0.76,9,0.66,14,-999,31.0,1,2,3,3.0,-1.0,3.0,0.0,0.0,0.0,100
23,1,1489.32,38,1825.5,1827.01,3.53,C,right,0.72,11,0.62,15,0.7,10,0.6,14,-999,32.0,1,2,3,-3.0,0.0,-3.0,0.0,3.0,-1.0,110
23,1,1489.32,39,1830.88,1832.39,5.24,B,mid,0.16,62,0.46,21,0.87,11,-999.0,-999,-999,99.0,1,2,3,0.0,0.0,0.0,0.0,0.0,0.0,11
23,1,1489.32,40,1837.97,1839.49,6.02,B,left,0.78,11,0.65,14,0.82,9,0.52,20,-999,1.0,3,1,2,3.0,0.0,0.0,-1.0,-3.0,0.0,110
23,1,1489.32,41,1845.86,1847.37,5.77,C,right,0.75,10,0.68,14,0.85,8,0.55,19,-999,2.0,2,1,3,0.0,-1.0,3.0,-1.0,0.0,-1.0,110
23,1,1489.32,42,1853.59,1855.1,4.57,C,mid,0.72,11,0.68,14,0.88,9,0.58,20,-999,2.0,1,3,2,-3.0,0.0,3.0,-1.0,3.0,0.0,1
23,1,1489.32,43,1860.02,1861.53,6.37,C,right,0.75,10,0.62,15,0.73,9,0.6,14,-999,32.0,1,2,3,0.0,-1.0,-3.0,0.0,-3.0,0.0,110
23,1,1489.32,44,1868.25,1869.76,7.44,C,mid,0.72,11,0.62,14,0.85,9,0.55,20,-999,2.0,3,1,2,-3.0,0.0,-3.0,-1.0,0.0,0.0,10
23,1,1489.32,45,1877.55,1879.06,4.19,B,mid,0.78,11,0.68,15,0.88,8,0.58,19,-999,1.0,3,2,1,3.0,0.0,3.0,0.0,3.0,-1.0,1
23,1,1489.32,46,1883.59,1885.11,4.12,B,left,0.78,11,0.62,14,0.85,8,0.55,19,-999,1.0,2,1,3,3.0,0.0,-3.0,-1.0,0.0,-1.0,10
23,1,1489.32,47,1889.57,1891.09,10.32,B,right,0.78,10,0.68,14,0.76,9,0.66,13,-999,32.0,2,3,1,3.0,-1.0,3.0,-1.0,3.0,-1.0,11
23,1,1489.32,48,1901.75,1903.27,8.63,B,mid,0.78,11,0.65,15,0.76,10,0.63,14,-999,32.0,1,2,3,3.0,0.0,0.0,0.0,-3.0,-1.0,10
23,1,1489.32,49,1912.25,1913.77,7.9,C,right,0.78,11,0.62,14,0.85,9,0.55,20,-999,2.0,1,2,3,3.0,0.0,-3.0,-1.0,0.0,0.0,11
23,1,1489.32,50,1922.01,1923.53,4.22,B,mid,0.72,10,0.65,14,0.7,9,0.63,13,-999,31.0,3,2,1,-3.0,-1.0,0.0,-1.0,3.0,-1.0,0
23,1,1489.32,51,1928.1,1929.61,4.43,C,right,0.72,10,0.68,14,0.85,9,0.55,20,-999,2.0,2,1,3,-3.0,-1.0,3.0,-1.0,0.0,0.0,1
23,1,1489.32,52,1934.38,1935.89,7.52,B,left,0.78,10,0.62,15,0.76,9,0.6,14,-999,31.0,2,1,3,3.0,-1.0,-3.0,0.0,0.0,0.0,10
23,1,1489.32,53,1943.76,1945.27,5.5,B,mid,0.24,41,0.37,27,0.76,13,-999.0,-999,-999,99.0,1,2,3,0.0,0.0,0.0,0.0,0.0,0.0,0
23,1,1489.32,54,1951.12,1952.64,6.82,B,left,0.75,10,0.68,14,0.73,9,0.66,13,-999,32.0,2,1,3,0.0,-1.0,3.0,-1.0,0.0,0.0,100
23,1,1489.32,55,1959.8,1961.32,8.14,B,mid,0.78,10,0.62,15,0.85,8,0.55,19,-999,1.0,1,2,3,3.0,-1.0,-3.0,0.0,0.0,-1.0,0
23,1,1489.32,56,1969.8,1971.31,5.32,A,mid,0.32,31,0.48,20,0.85,11,-999.0,-999,-999,99.0,2,3,1,0.0,0.0,0.0,0.0,0.0,0.0,10
23,1,1489.32,57,1976.96,1978.48,9.03,B,mid,0.75,11,0.65,15,0.73,10,0.63,14,-999,31.0,1,2,3,0.0,0.0,0.0,0.0,0.0,0.0,101
23,1,1489.32,58,1987.84,1989.36,6.07,B,right,0.72,10,0.65,15,0.7,9,0.63,14,-999,31.0,1,3,2,-3.0,-1.0,0.0,0.0,3.0,-1.0,111
23,1,1489.32,59,1995.77,1997.29,3.2,B,left,0.75,11,0.65,14,0.85,8,0.55,19,-999,2.0,2,1,3,0.0,0.0,0.0,-1.0,0.0,-1.0,100
23,1,1489.32,60,2000.84,2002.35,5.62,B,left,0.78,11,0.62,15,0.76,10,0.6,14,-999,32.0,3,1,2,3.0,0.0,-3.0,0.0,3.0,0.0,110
23,1,1489.32,61,2008.32,2009.84,3.9,B,mid,0.75,10,0.65,15,0.73,9,0.63,14,-999,31.0,3,2,1,0.0,-1.0,0.0,0.0,3.0,-1.0,1
23,1,1489.32,62,2014.07,2015.58,5.17,B,left,0.75,11,0.65,14,0.73,10,0.63,13,-999,31.0,3,1,2,0.0,0.0,0.0,-1.0,-3.0,-1.0,111
23,1,1489.32,63,2021.08,2022.6,4.02,B,mid,0.75,10,0.68,15,0.88,9,0.58,20,-999,1.0,3,2,1,0.0,-1.0,3.0,0.0,3.0,0.0,0
23,1,1489.32,64,2026.95,2028.46,3.34,B,mid,0.78,10,0.62,15,0.76,9,0.6,14,-999,32.0,1,2,3,3.0,-1.0,-3.0,0.0,-3.0,-1.0,0
23,1,1489.32,65,2032.15,2033.66,3.99,B,right,0.78,10,0.62,14,0.76,9,0.6,13,-999,32.0,2,3,1,3.0,-1.0,-3.0,-1.0,0.0,-1.0,110
23,1,1489.32,66,2037.99,2039.51,4.78,B,left,0.72,10,0.65,15,0.7,9,0.63,14,-999,31.0,2,1,3,-3.0,-1.0,0.0,0.0,3.0,-1.0,101
23,1,1489.32,67,2044.62,2046.14,5.87,A,mid,0.28,35,0.67,14,0.78,12,-999.0,-999,-999,99.0,2,1,3,0.0,0.0,0.0,0.0,0.0,0.0,111
23,1,1489.32,68,2052.34,2053.85,6.64,B,right,0.72,11,0.68,14,0.7,10,0.66,13,-999,32.0,1,3,2,-3.0,0.0,3.0,-1.0,0.0,-1.0,10
23,1,1489.32,69,2060.84,2062.35,3.96,B,mid,0.72,10,0.68,14,0.7,9,0.66,13,-999,31.0,1,2,3,-3.0,-1.0,3.0,-1.0,-3.0,0.0,111
23,1,1489.32,70,2066.65,2068.17,3.46,B,left,0.78,10,0.65,15,0.76,9,0.63,14,-999,32.0,3,1,2,3.0,-1.0,0.0,0.0,-3.0,-1.0,111
23,1,1489.32,71,2071.97,2073.48,5.24,B,mid,0.78,11,0.62,14,0.76,10,0.6,13,-999,31.0,3,2,1,3.0,0.0,-3.0,-1.0,-3.0,0.0,100
23,1,1489.32,72,2079.06,2080.58,4.0,C,mid,0.72,11,0.62,14,0.85,9,0.55,20,-999,2.0,3,1,2,-3.0,0.0,-3.0,-1.0,0.0,0.0,0
23,1,1489.32,73,2084.93,2086.44,7.39,C,mid,0.75,10,0.62,15,0.88,8,0.58,19,-999,2.0,1,3,2,0.0,-1.0,-3.0,0.0,3.0,-1.0,110
23,1,1489.32,74,2094.18,2095.69,6.28,A,right,0.19,52,0.56,17,0.8,12,-999.0,-999,-999,99.0,3,1,2,0.0,0.0,0.0,0.0,0.0,0.0,110
23,1,1489.32,75,2102.31,2103.82,5.34,C,right,0.72,10,0.65,15,0.85,9,0.55,20,-999,2.0,2,1,3,-3.0,-1.0,0.0,0.0,0.0,0.0,110
23,Estimation2,2226.68,E1,2226.75,2228.26,4.74,B,mid,0.75,11,0.65,15,0.85,-999,0.55,20,3,,3,2,1,,,,,,,110
23,Estimation2,2226.68,E2,2233.35,2234.86,2.45,C,left,0.75,12,0.65,15,0.85,-999,0.55,20,1,2.0,3,2,1,,,,,,,100
23,Estimation2,2226.68,E3,2237.65,2239.16,3.97,B,left,0.75,12,0.65,15,0.85,-999,0.55,18,3,,2,1,3,,,,,,,110
23,Estimation2,2226.68,E4,2243.48,2244.99,2.88,C,right,0.75,13,0.65,15,0.85,-999,0.55,18,1,2.0,1,2,3,,,,,,,0
23,Estimation2,2226.68,E5,2248.23,2249.74,5.08,A,right,0.75,13,0.65,15,0.85,-999,0.55,17,3,,3,1,2,,,,,,,1
23,Estimation2,2226.68,E6,2255.17,2256.69,5.31,B,right,0.75,13,0.65,15,0.85,7,0.55,17,1,2.0,1,3,2,,,,,,,1
23,Estimation2,2226.68,E7,2262.34,2263.85,8.23,A,left,0.75,13,0.65,15,0.85,7,0.55,18,2,1.0,1,3,2,,,,,,,0
23,Estimation2,2226.68,E8,2272.42,2273.93,4.1,B,mid,0.75,13,0.65,15,0.85,9,0.55,18,1,2.0,1,2,3,,,,,,,0
23,Estimation2,2226.68,E9,2278.38,2279.9,3.98,A,right,0.75,13,0.65,15,0.85,9,0.55,18,2,1.0,3,1,2,,,,,,,101
23,Estimation2,2226.68,E10,2284.23,2285.75,3.1,B,left,0.75,13,0.65,15,0.85,10,0.55,18,1,2.0,3,1,2,,,,,,,10
23,Estimation2,2226.68,E11,2289.18,2290.69,3.6,A,right,0.75,13,0.65,15,0.85,10,0.55,18,2,1.0,3,2,1,,,,,,,110
23,Estimation2,2226.68,E12,2294.64,2296.16,7.71,C,mid,0.75,13,0.65,15,0.85,11,0.55,18,1,2.0,3,1,2,,,,,,,110
23,Estimation2,2226.68,E13,2304.21,2305.72,3.87,A,left,0.75,13,0.65,15,0.85,11,0.55,18,2,1.0,1,2,3,,,,,,,101
23,2,2313.59,1,2313.65,2315.17,8.28,B,left,0.78,13,0.68,15,0.76,12,0.66,14,-999,31.0,3,1,2,3.0,0.0,3.0,0.0,0.0,0.0,11
23,2,2313.59,2,2323.78,2325.3,8.74,B,mid,0.72,12,0.68,14,0.85,11,0.55,18,-999,2.0,1,2,3,-3.0,-1.0,3.0,-1.0,0.0,0.0,101
23,2,2313.59,3,2334.38,2335.9,4.08,B,right,0.72,12,0.65,15,0.7,11,0.63,14,-999,31.0,1,3,2,-3.0,-1.0,0.0,0.0,3.0,-1.0,111
23,2,2313.59,4,2340.31,2341.83,13.24,A,mid,0.24,41,0.37,27,0.76,13,-999.0,-999,-999,99.0,2,1,3,0.0,0.0,0.0,0.0,0.0,0.0,11
23,2,2313.59,5,2355.41,2356.92,8.77,B,left,0.78,13,0.65,15,0.76,12,0.63,14,-999,32.0,2,1,3,3.0,0.0,0.0,0.0,0.0,0.0,100
23,2,2313.59,6,2366.04,2367.55,4.82,B,mid,0.72,13,0.68,15,0.82,10,0.52,17,-999,1.0,3,2,1,-3.0,0.0,3.0,0.0,-3.0,-1.0,0
23,2,2313.59,7,2372.7,2374.22,3.93,B,right,0.78,12,0.62,15,0.76,11,0.6,14,-999,31.0,2,3,1,3.0,-1.0,-3.0,0.0,0.0,0.0,111
23,2,2313.59,8,2378.48,2380.0,4.74,A,right,0.72,13,0.62,15,0.7,12,0.6,14,-999,32.0,3,2,1,-3.0,0.0,-3.0,0.0,0.0,0.0,0
23,2,2313.59,9,2385.08,2386.6,7.69,B,left,0.78,13,0.68,15,0.88,10,0.58,17,-999,1.0,2,1,3,3.0,0.0,3.0,0.0,3.0,-1.0,1
23,2,2313.59,10,2394.63,2396.14,3.81,B,mid,0.72,13,0.68,15,0.82,10,0.52,17,-999,1.0,3,2,1,-3.0,0.0,3.0,0.0,-3.0,-1.0,10
23,2,2313.59,11,2400.29,2401.81,4.96,B,left,0.75,12,0.65,15,0.73,11,0.63,14,-999,31.0,3,1,2,0.0,-1.0,0.0,0.0,3.0,-1.0,110
23,2,2313.59,12,2407.11,2408.62,5.52,A,right,0.72,13,0.62,14,0.85,11,0.55,18,-999,2.0,3,1,2,-3.0,0.0,-3.0,-1.0,0.0,0.0,0
23,2,2313.59,13,2414.49,2416.0,10.91,A,mid,0.75,13,0.65,15,0.82,10,0.52,17,-999,1.0,2,1,3,0.0,0.0,0.0,0.0,-3.0,-1.0,110
23,2,2313.59,14,2427.25,2428.77,2.78,B,left,0.72,13,0.65,15,0.7,12,0.63,14,-999,31.0,3,1,2,-3.0,0.0,0.0,0.0,-3.0,-1.0,110
23,2,2313.59,15,2431.88,2433.4,4.75,B,right,0.72,12,0.68,14,0.7,11,0.66,13,-999,31.0,1,3,2,-3.0,-1.0,3.0,-1.0,-3.0,0.0,0
23,2,2313.59,16,2438.5,2440.01,3.16,B,mid,0.75,13,0.65,15,0.73,12,0.63,14,-999,31.0,3,2,1,0.0,0.0,0.0,0.0,0.0,-1.0,1
23,2,2313.59,17,2443.51,2445.03,4.71,B,right,0.72,13,0.68,14,0.7,12,0.66,13,-999,32.0,2,3,1,-3.0,0.0,3.0,-1.0,0.0,-1.0,11
23,2,2313.59,18,2450.08,2451.59,4.87,B,right,0.75,12,0.68,14,0.73,11,0.66,13,-999,32.0,1,3,2,0.0,-1.0,3.0,-1.0,0.0,0.0,10
23,2,2313.59,19,2456.81,2458.32,4.61,B,mid,0.78,12,0.68,15,0.85,10,0.55,17,-999,1.0,3,2,1,3.0,-1.0,3.0,0.0,0.0,-1.0,10
23,2,2313.59,20,2463.27,2464.79,7.59,B,left,0.27,37,0.47,21,0.86,11,-999.0,-999,-999,99.0,3,1,2,0.0,0.0,0.0,0.0,0.0,0.0,11
23,2,2313.59,21,2472.72,2474.24,5.99,B,right,0.72,13,0.65,14,0.7,12,0.63,13,-999,32.0,2,3,1,-3.0,0.0,0.0,-1.0,3.0,0.0,101
23,2,2313.59,22,2480.57,2482.08,6.07,B,mid,0.16,62,0.46,21,0.87,11,-999.0,-999,-999,99.0,3,2,1,0.0,0.0,0.0,0.0,0.0,0.0,10
23,2,2313.59,23,2488.5,2490.01,8.5,A,right,0.78,12,0.62,15,0.76,11,0.6,14,-999,32.0,3,2,1,3.0,-1.0,-3.0,0.0,-3.0,-1.0,111
23,2,2313.59,24,2498.84,2500.36,5.75,C,mid,0.72,12,0.68,15,0.88,11,0.58,18,-999,2.0,3,1,2,-3.0,-1.0,3.0,0.0,3.0,0.0,10
23,2,2313.59,25,2506.46,2507.97,4.3,B,right,0.72,13,0.62,14,0.7,12,0.6,13,-999,32.0,2,3,1,-3.0,0.0,-3.0,-1.0,0.0,0.0,100
23,2,2313.59,26,2512.61,2514.12,5.17,B,mid,0.75,12,0.62,15,0.73,11,0.6,14,-999,32.0,1,2,3,0.0,-1.0,-3.0,0.0,-3.0,0.0,11
23,2,2313.59,27,2519.64,2521.15,7.27,A,mid,0.75,12,0.65,14,0.73,11,0.63,13,-999,32.0,2,3,1,0.0,-1.0,0.0,-1.0,3.0,0.0,1
23,2,2313.59,28,2528.77,2530.28,9.6,C,mid,0.78,13,0.62,14,0.85,10,0.55,17,-999,1.0,1,3,2,3.0,0.0,-3.0,-1.0,0.0,-1.0,0
23,2,2313.59,29,2540.23,2541.75,9.81,B,left,0.78,12,0.65,15,0.76,11,0.63,14,-999,32.0,3,1,2,3.0,-1.0,0.0,0.0,-3.0,-1.0,100
23,2,2313.59,30,2551.89,2553.41,3.04,A,left,0.19,52,0.59,16,0.81,12,-999.0,-999,-999,99.0,1,2,3,0.0,0.0,0.0,0.0,0.0,0.0,0
23,2,2313.59,31,2556.79,2558.31,12.51,C,right,0.75,12,0.62,15,0.88,10,0.58,17,-999,2.0,2,1,3,0.0,-1.0,-3.0,0.0,3.0,-1.0,10
23,2,2313.59,32,2571.15,2572.67,4.6,C,mid,0.78,13,0.62,14,0.85,11,0.55,18,-999,2.0,1,3,2,3.0,0.0,-3.0,-1.0,0.0,0.0,111
23,2,2313.59,33,2577.6,2579.12,3.26,B,mid,0.78,13,0.65,14,0.82,11,0.52,18,-999,1.0,1,2,3,3.0,0.0,0.0,-1.0,-3.0,0.0,10
23,2,2313.59,34,2582.72,2584.23,6.27,A,right,0.78,13,0.65,14,0.82,10,0.52,17,-999,1.0,3,2,1,3.0,0.0,0.0,-1.0,-3.0,-1.0,100
23,2,2313.59,35,2590.85,2592.36,10.24,B,mid,0.29,34,0.42,23,0.72,13,-999.0,-999,-999,99.0,1,2,3,0.0,0.0,0.0,0.0,0.0,0.0,101
23,2,2313.59,36,2602.94,2604.46,10.73,A,left,0.78,13,0.62,14,0.76,12,0.6,13,-999,31.0,1,3,2,3.0,0.0,-3.0,-1.0,-3.0,0.0,11
23,2,2313.59,37,2615.54,2617.06,7.85,B,right,0.72,13,0.62,15,0.7,12,0.6,14,-999,32.0,1,3,2,-3.0,0.0,-3.0,0.0,3.0,-1.0,11
23,2,2313.59,38,2653.91,2655.43,5.18,B,left,0.78,13,0.62,15,0.76,12,0.6,14,-999,32.0,3,1,2,3.0,0.0,-3.0,0.0,3.0,0.0,111
23,2,2313.59,39,2660.94,2662.46,5.78,B,right,0.72,13,0.65,15,0.82,10,0.52,17,-999,2.0,1,3,2,-3.0,0.0,0.0,0.0,-3.0,-1.0,111
23,2,2313.59,40,2668.57,2670.09,9.84,B,left,0.32,31,0.6,16,0.78,12,-999.0,-999,-999,99.0,2,1,3,0.0,0.0,0.0,0.0,0.0,0.0,10
23,2,2313.59,41,2680.27,2681.79,6.67,B,mid,0.75,12,0.62,15,0.88,11,0.58,18,-999,1.0,1,2,3,0.0,-1.0,-3.0,0.0,3.0,0.0,0
23,2,2313.59,42,2688.78,2690.3,10.03,B,left,0.72,12,0.65,15,0.7,11,0.63,14,-999,31.0,3,1,2,-3.0,-1.0,0.0,0.0,3.0,-1.0,0
23,2,2313.59,43,2700.68,2702.2,3.82,C,right,0.72,12,0.62,14,0.88,11,0.58,18,-999,2.0,1,2,3,-3.0,-1.0,-3.0,-1.0,3.0,0.0,100
23,2,2313.59,44,2706.36,2707.88,8.79,B,left,0.75,12,0.68,15,0.88,11,0.58,18,-999,1.0,2,1,3,0.0,-1.0,3.0,0.0,3.0,0.0,101
23,2,2313.59,45,2717.01,2718.52,11.66,C,right,0.75,13,0.65,14,0.85,10,0.55,17,-999,2.0,1,2,3,0.0,0.0,0.0,-1.0,0.0,-1.0,100
23,2,2313.59,46,2730.52,2732.04,15.47,B,right,0.72,12,0.65,15,0.85,11,0.55,18,-999,2.0,2,3,1,-3.0,-1.0,0.0,0.0,0.0,0.0,11
23,2,2313.59,47,2747.85,2749.36,9.03,B,mid,0.75,12,0.68,14,0.85,10,0.55,17,-999,2.0,3,2,1,0.0,-1.0,3.0,-1.0,0.0,-1.0,11
23,2,2313.59,48,2758.73,2760.24,4.54,B,left,0.78,12,0.62,15,0.85,10,0.55,17,-999,1.0,2,1,3,3.0,-1.0,-3.0,0.0,0.0,-1.0,10
23,2,2313.59,49,2765.12,2766.64,5.52,B,right,0.78,12,0.68,15,0.76,11,0.66,14,-999,31.0,1,3,2,3.0,-1.0,3.0,0.0,0.0,0.0,10
23,2,2313.59,50,2772.51,2774.02,6.6,B,left,0.78,12,0.62,14,0.76,11,0.6,13,-999,32.0,2,1,3,3.0,-1.0,-3.0,-1.0,0.0,-1.0,110
23,2,2313.59,51,2780.97,2782.49,5.41,A,left,0.31,32,0.38,26,0.85,11,-999.0,-999,-999,99.0,1,3,2,0.0,0.0,0.0,0.0,0.0,0.0,0
23,2,2313.59,52,2788.23,2789.75,15.52,B,mid,0.78,12,0.68,15,0.88,11,0.58,18,-999,1.0,1,2,3,3.0,-1.0,3.0,0.0,3.0,0.0,110
23,2,2313.59,53,2805.61,2807.13,5.66,B,right,0.75,12,0.68,14,0.73,11,0.66,13,-999,31.0,2,3,1,0.0,-1.0,3.0,-1.0,0.0,-1.0,111
23,2,2313.59,54,2813.13,2814.64,8.88,A,mid,0.19,52,0.56,17,0.8,12,-999.0,-999,-999,99.0,2,1,3,0.0,0.0,0.0,0.0,0.0,0.0,101
23,2,2313.59,55,2823.87,2825.39,10.87,A,right,0.75,13,0.65,15,0.73,12,0.63,14,-999,31.0,3,2,1,0.0,0.0,0.0,0.0,0.0,0.0,100
23,2,2313.59,56,2836.6,2838.12,7.57,C,right,0.75,13,0.62,14,0.88,11,0.58,18,-999,2.0,1,2,3,0.0,0.0,-3.0,-1.0,3.0,0.0,111
23,2,2313.59,57,2846.03,2847.55,11.71,A,left,0.75,13,0.65,14,0.73,12,0.63,13,-999,31.0,1,2,3,0.0,0.0,0.0,-1.0,0.0,0.0,1
23,2,2313.59,58,2859.59,2861.11,7.07,C,left,0.78,13,0.65,14,0.82,10,0.52,17,-999,2.0,3,2,1,3.0,0.0,0.0,-1.0,-3.0,-1.0,0
23,2,2313.59,59,2868.52,2870.04,5.74,A,mid,0.27,37,0.61,16,0.89,11,-999.0,-999,-999,99.0,2,3,1,0.0,0.0,0.0,0.0,0.0,0.0,10
23,2,2313.59,60,2876.12,2877.64,6.45,B,left,0.78,13,0.68,15,0.82,11,0.52,18,-999,1.0,3,1,2,3.0,0.0,3.0,0.0,-3.0,0.0,111
23,2,2313.59,61,2884.44,2885.95,7.93,B,mid,0.72,13,0.62,15,0.7,12,0.6,14,-999,31.0,3,2,1,-3.0,0.0,-3.0,0.0,0.0,-1.0,110
23,2,2313.59,62,2894.22,2895.73,8.6,B,mid,0.78,13,0.65,15,0.76,12,0.63,14,-999,32.0,1,2,3,3.0,0.0,0.0,0.0,-3.0,-1.0,100
23,2,2313.59,63,2904.66,2906.18,7.5,A,left,0.28,35,0.67,14,0.78,12,-999.0,-999,-999,99.0,1,2,3,0.0,0.0,0.0,0.0,0.0,0.0,0
23,2,2313.59,64,2914.03,2915.54,8.95,B,mid,0.72,12,0.65,14,0.7,11,0.63,13,-999,31.0,1,2,3,-3.0,-1.0,0.0,-1.0,3.0,-1.0,10
23,2,2313.59,65,2924.82,2926.34,12.33,A,right,0.72,13,0.62,14,0.85,11,0.55,18,-999,2.0,3,1,2,-3.0,0.0,-3.0,-1.0,0.0,0.0,0
23,2,2313.59,66,2939.02,2940.53,7.48,B,right,0.72,13,0.68,15,0.82,11,0.52,18,-999,2.0,2,3,1,-3.0,0.0,3.0,0.0,-3.0,0.0,110
23,2,2313.59,67,2948.35,2949.87,6.35,B,mid,0.75,13,0.65,14,0.73,12,0.63,13,-999,31.0,3,2,1,0.0,0.0,0.0,-1.0,-3.0,-1.0,10
23,2,2313.59,68,2956.56,2958.08,4.98,A,right,0.75,13,0.62,15,0.88,10,0.58,17,-999,1.0,3,2,1,0.0,0.0,-3.0,0.0,3.0,-1.0,110
23,2,2313.59,69,2963.39,2964.91,5.35,B,left,0.72,13,0.65,15,0.82,10,0.52,17,-999,1.0,3,1,2,-3.0,0.0,0.0,0.0,-3.0,-1.0,10
23,2,2313.59,70,2970.59,2972.11,12.51,A,mid,0.72,13,0.68,14,0.88,11,0.58,18,-999,2.0,2,1,3,-3.0,0.0,3.0,-1.0,3.0,0.0,1
23,2,2313.59,71,2984.95,2986.47,5.88,B,mid,0.78,12,0.68,14,0.76,11,0.66,13,-999,32.0,3,2,1,3.0,-1.0,3.0,-1.0,3.0,-1.0,110
23,2,2313.59,72,2992.68,2994.2,7.39,B,right,0.72,12,0.62,15,0.7,11,0.6,14,-999,32.0,1,3,2,-3.0,-1.0,-3.0,0.0,-3.0,-1.0,110
23,2,2313.59,73,3001.93,3003.45,3.96,C,left,0.72,12,0.65,15,0.88,10,0.58,17,-999,2.0,3,2,1,-3.0,-1.0,0.0,0.0,3.0,-1.0,110
23,2,2313.59,74,3007.75,3009.26,7.59,B,mid,0.75,13,0.65,15,0.85,11,0.55,18,-999,1.0,3,2,1,0.0,0.0,0.0,0.0,0.0,0.0,11
23,2,2313.59,75,3017.19,3018.71,9.1,A,left,0.32,31,0.48,20,0.85,11,-999.0,-999,-999,99.0,1,3,2,0.0,0.0,0.0,0.0,0.0,0.0,111
23,Estimation3,3141.74,E1,3141.8,3143.32,3.87,B,left,0.75,11,0.65,15,0.85,-999,0.55,20,3,,3,1,2,,,,,,,100
23,Estimation3,3141.74,E2,3147.55,3149.07,3.03,C,left,0.75,12,0.65,15,0.85,-999,0.55,20,1,2.0,3,2,1,,,,,,,11
23,Estimation3,3141.74,E3,3152.43,3153.95,4.62,B,mid,0.75,12,0.65,15,0.85,-999,0.55,18,3,,1,2,3,,,,,,,110
23,Estimation3,3141.74,E4,3158.91,3160.43,4.65,C,right,0.75,13,0.65,15,0.85,-999,0.55,18,1,2.0,1,2,3,,,,,,,0
23,Estimation3,3141.74,E5,3165.41,3166.93,6.39,B,mid,0.75,13,0.65,15,0.85,-999,0.55,17,3,,3,2,1,,,,,,,111
23,Estimation3,3141.74,E6,3173.66,3175.18,9.32,B,left,0.75,13,0.65,15,0.85,7,0.55,17,1,2.0,3,1,2,,,,,,,101
23,Estimation3,3141.74,E7,3184.84,3186.36,3.54,A,left,0.75,13,0.65,15,0.85,7,0.55,18,2,1.0,1,2,3,,,,,,,11
23,Estimation3,3141.74,E8,3190.24,3191.75,4.96,C,left,0.75,13,0.65,15,0.85,9,0.55,18,1,2.0,3,2,1,,,,,,,0
23,Estimation3,3141.74,E9,3197.05,3198.57,2.65,A,left,0.75,13,0.65,15,0.85,9,0.55,18,2,1.0,1,3,2,,,,,,,0
23,Estimation3,3141.74,E10,3201.57,3203.08,5.27,C,left,0.75,13,0.65,15,0.85,10,0.55,18,1,2.0,2,3,1,,,,,,,10
23,Estimation3,3141.74,E11,3208.7,3210.21,7.62,A,mid,0.75,13,0.65,15,0.85,10,0.55,18,2,1.0,2,1,3,,,,,,,11
23,Estimation3,3141.74,E12,3218.18,3219.69,4.37,C,mid,0.75,13,0.65,15,0.85,11,0.55,18,1,2.0,1,3,2,,,,,,,100
23,Estimation3,3141.74,E13,3224.41,3225.93,5.39,A,right,0.75,13,0.65,15,0.85,11,0.55,18,2,1.0,3,2,1,,,,,,,101
23,3,3234.5,1,3234.57,3236.09,7.83,B,left,0.72,12,0.68,14,0.85,11,0.55,18,-999,2.0,2,1,3,-3.0,-1.0,3.0,-1.0,0.0,0.0,111
23,3,3234.5,2,3244.27,3245.79,5.44,A,mid,0.78,13,0.65,14,0.82,10,0.52,17,-999,1.0,2,3,1,3.0,0.0,0.0,-1.0,-3.0,-1.0,111
23,3,3234.5,3,3251.57,3253.08,7.72,C,right,0.72,13,0.62,14,0.85,11,0.55,18,-999,2.0,1,2,3,-3.0,0.0,-3.0,-1.0,0.0,0.0,11
23,3,3234.5,4,3261.15,3262.66,8.7,B,left,0.78,12,0.68,15,0.85,10,0.55,17,-999,1.0,3,1,2,3.0,-1.0,3.0,0.0,0.0,-1.0,111
23,3,3234.5,5,3271.69,3273.21,11.59,A,left,0.75,13,0.65,15,0.85,11,0.55,18,-999,1.0,1,3,2,0.0,0.0,0.0,0.0,0.0,0.0,1
23,3,3234.5,6,3285.14,3286.66,8.97,B,left,0.75,12,0.68,15,0.88,11,0.58,18,-999,1.0,3,1,2,0.0,-1.0,3.0,0.0,3.0,0.0,10
23,3,3234.5,7,3295.97,3297.49,6.14,B,mid,0.78,12,0.62,15,0.85,10,0.55,17,-999,1.0,1,2,3,3.0,-1.0,-3.0,0.0,0.0,-1.0,11
23,3,3234.5,8,3303.97,3305.48,7.95,B,right,0.78,12,0.62,15,0.76,11,0.6,14,-999,31.0,1,3,2,3.0,-1.0,-3.0,0.0,0.0,0.0,10
23,3,3234.5,9,3313.78,3315.3,4.51,A,right,0.19,52,0.56,17,0.8,12,-999.0,-999,-999,99.0,3,1,2,0.0,0.0,0.0,0.0,0.0,0.0,1
23,3,3234.5,10,3320.15,3321.66,6.39,C,left,0.75,12,0.62,15,0.88,10,0.58,17,-999,2.0,2,3,1,0.0,-1.0,-3.0,0.0,3.0,-1.0,101
23,3,3234.5,11,3328.39,3329.91,17.46,A,right,0.75,13,0.65,14,0.73,12,0.63,13,-999,31.0,3,2,1,0.0,0.0,0.0,-1.0,-3.0,-1.0,110
23,3,3234.5,12,3347.7,3349.22,13.58,B,mid,0.75,12,0.68,14,0.85,10,0.55,17,-999,2.0,3,2,1,0.0,-1.0,3.0,-1.0,0.0,-1.0,111
23,3,3234.5,13,3363.13,3364.65,8.9,B,mid,0.78,13,0.65,15,0.76,12,0.63,14,-999,32.0,1,2,3,3.0,0.0,0.0,0.0,-3.0,-1.0,1
23,3,3234.5,14,3373.88,3375.39,3.89,A,left,0.24,41,0.37,27,0.76,13,-999.0,-999,-999,99.0,1,2,3,0.0,0.0,0.0,0.0,0.0,0.0,0
23,3,3234.5,15,3379.63,3381.14,10.42,A,mid,0.72,13,0.65,15,0.82,10,0.52,17,-999,1.0,2,3,1,-3.0,0.0,0.0,0.0,-3.0,-1.0,111
23,3,3234.5,16,3391.91,3393.42,22.25,A,left,0.29,34,0.42,23,0.72,13,-999.0,-999,-999,99.0,1,3,2,0.0,0.0,0.0,0.0,0.0,0.0,11
23,3,3234.5,17,3416.01,3417.53,9.25,B,left,0.72,13,0.65,15,0.82,10,0.52,17,-999,2.0,2,1,3,-3.0,0.0,0.0,0.0,-3.0,-1.0,11
23,3,3234.5,18,3427.11,3428.63,7.86,A,left,0.78,13,0.68,15,0.82,11,0.52,18,-999,1.0,1,2,3,3.0,0.0,3.0,0.0,-3.0,0.0,110
23,3,3234.5,19,3436.82,3438.34,6.07,A,right,0.75,13,0.65,14,0.73,12,0.63,13,-999,31.0,3,1,2,0.0,0.0,0.0,-1.0,0.0,0.0,10
23,3,3234.5,20,3444.76,3446.27,6.49,B,left,0.72,13,0.68,15,0.82,10,0.52,17,-999,1.0,2,1,3,-3.0,0.0,3.0,0.0,-3.0,-1.0,100
23,3,3234.5,21,3453.1,3454.62,6.17,A,left,0.75,13,0.62,15,0.88,10,0.58,17,-999,1.0,1,2,3,0.0,0.0,-3.0,0.0,3.0,-1.0,11
23,3,3234.5,22,3461.12,3462.63,11.5,B,right,0.72,13,0.62,15,0.7,12,0.6,14,-999,32.0,1,3,2,-3.0,0.0,-3.0,0.0,3.0,-1.0,111
23,3,3234.5,23,3474.48,3475.99,3.73,A,mid,0.16,62,0.46,21,0.87,11,-999.0,-999,-999,99.0,2,3,1,0.0,0.0,0.0,0.0,0.0,0.0,11
23,3,3234.5,24,3480.06,3481.58,6.03,A,mid,0.27,37,0.47,21,0.86,11,-999.0,-999,-999,99.0,2,3,1,0.0,0.0,0.0,0.0,0.0,0.0,10
23,3,3234.5,25,3487.94,3489.46,12.23,B,mid,0.78,13,0.62,14,0.76,12,0.6,13,-999,31.0,3,2,1,3.0,0.0,-3.0,-1.0,-3.0,0.0,101
23,3,3234.5,26,3502.02,3503.54,13.18,A,right,0.19,52,0.59,16,0.81,12,-999.0,-999,-999,99.0,3,2,1,0.0,0.0,0.0,0.0,0.0,0.0,111
23,3,3234.5,27,3517.05,3518.56,5.72,B,left,0.78,12,0.62,15,0.76,11,0.6,14,-999,32.0,3,1,2,3.0,-1.0,-3.0,0.0,-3.0,-1.0,10
23,3,3234.5,28,3524.61,3526.13,6.12,A,mid,0.31,32,0.38,26,0.85,11,-999.0,-999,-999,99.0,2,1,3,0.0,0.0,0.0,0.0,0.0,0.0,110
23,3,3234.5,29,3532.59,3534.11,4.18,B,right,0.78,13,0.62,15,0.76,12,0.6,14,-999,32.0,1,3,2,3.0,0.0,-3.0,0.0,3.0,0.0,0
23,3,3234.5,30,3538.62,3540.14,4.89,A,mid,0.28,35,0.67,14,0.78,12,-999.0,-999,-999,99.0,2,3,1,0.0,0.0,0.0,0.0,0.0,0.0,11
23,3,3234.5,31,3545.37,3546.89,14.55,A,left,0.75,12,0.62,15,0.73,11,0.6,14,-999,32.0,1,2,3,0.0,-1.0,-3.0,0.0,-3.0,0.0,11
23,3,3234.5,32,3561.78,3563.3,9.12,B,left,0.72,12,0.62,15,0.7,11,0.6,14,-999,32.0,3,1,2,-3.0,-1.0,-3.0,0.0,-3.0,-1.0,110
23,3,3234.5,33,3572.76,3574.28,5.7,B,left,0.78,12,0.68,14,0.76,11,0.66,13,-999,32.0,3,1,2,3.0,-1.0,3.0,-1.0,3.0,-1.0,10
23,3,3234.5,34,3580.33,3581.84,6.34,A,left,0.32,31,0.6,16,0.78,12,-999.0,-999,-999,99.0,1,3,2,0.0,0.0,0.0,0.0,0.0,0.0,1
23,3,3234.5,35,3588.53,3590.04,13.69,A,mid,0.32,31,0.48,20,0.85,11,-999.0,-999,-999,99.0,2,1,3,0.0,0.0,0.0,0.0,0.0,0.0,11
23,3,3234.5,36,3604.07,3605.59,8.25,C,mid,0.75,13,0.65,14,0.85,10,0.55,17,-999,2.0,1,3,2,0.0,0.0,0.0,-1.0,0.0,-1.0,110
23,3,3234.5,37,3614.18,3615.7,7.75,B,left,0.75,12,0.65,15,0.73,11,0.63,14,-999,31.0,2,1,3,0.0,-1.0,0.0,0.0,3.0,-1.0,100
23,3,3234.5,38,3631.89,3633.41,13.51,B,right,0.78,12,0.62,14,0.76,11,0.6,13,-999,32.0,2,3,1,3.0,-1.0,-3.0,-1.0,0.0,-1.0,10
23,3,3234.5,39,3647.26,3648.77,5.51,B,mid,0.72,13,0.68,14,0.7,12,0.66,13,-999,32.0,3,2,1,-3.0,0.0,3.0,-1.0,0.0,-1.0,1
23,3,3234.5,40,3654.62,3656.14,6.48,A,mid,0.27,37,0.61,16,0.89,11,-999.0,-999,-999,99.0,2,1,3,0.0,0.0,0.0,0.0,0.0,0.0,10
23,3,3234.5,41,3662.95,3664.47,10.71,B,left,0.75,12,0.62,15,0.88,11,0.58,18,-999,1.0,3,1,2,0.0,-1.0,-3.0,0.0,3.0,0.0,100
23,3,3234.5,42,3675.51,3677.03,6.76,A,left,0.72,12,0.65,15,0.7,11,0.63,14,-999,31.0,1,2,3,-3.0,-1.0,0.0,0.0,3.0,-1.0,100
23,3,3234.5,43,3684.13,3685.64,4.58,A,mid,0.72,13,0.62,15,0.7,12,0.6,14,-999,31.0,2,3,1,-3.0,0.0,-3.0,0.0,0.0,-1.0,0
23,3,3234.5,44,3690.56,3692.08,6.78,B,mid,0.72,12,0.65,15,0.7,11,0.63,14,-999,31.0,3,2,1,-3.0,-1.0,0.0,0.0,3.0,-1.0,11
23,3,3234.5,45,3699.19,3700.71,12.38,B,right,0.72,13,0.68,15,0.82,11,0.52,18,-999,2.0,1,3,2,-3.0,0.0,3.0,0.0,-3.0,0.0,0
23,3,3234.5,46,3713.42,3714.93,7.17,B,left,0.72,12,0.65,15,0.88,10,0.58,17,-999,2.0,3,1,2,-3.0,-1.0,0.0,0.0,3.0,-1.0,110
23,3,3234.5,47,3722.43,3723.95,7.78,B,right,0.75,12,0.68,14,0.73,11,0.66,13,-999,32.0,1,3,2,0.0,-1.0,3.0,-1.0,0.0,0.0,100
23,3,3234.5,48,3732.06,3733.58,4.43,B,right,0.72,13,0.65,14,0.7,12,0.63,13,-999,32.0,1,3,2,-3.0,0.0,0.0,-1.0,3.0,0.0,111
23,3,3234.5,49,3738.34,3739.86,8.22,A,mid,0.78,13,0.62,14,0.85,11,0.55,18,-999,2.0,2,3,1,3.0,0.0,-3.0,-1.0,0.0,0.0,111
23,3,3234.5,50,3748.41,3749.92,12.16,B,mid,0.75,13,0.65,15,0.82,10,0.52,17,-999,1.0,3,2,1,0.0,0.0,0.0,0.0,-3.0,-1.0,101
23,3,3234.5,51,3762.42,3763.94,10.41,B,mid,0.75,12,0.65,14,0.73,11,0.63,13,-999,32.0,3,2,1,0.0,-1.0,0.0,-1.0,3.0,0.0,1
23,3,3234.5,52,3774.68,3776.2,6.0,B,left,0.72,13,0.65,15,0.7,12,0.63,14,-999,31.0,3,1,2,-3.0,0.0,0.0,0.0,-3.0,-1.0,100
23,3,3234.5,53,3782.53,3784.05,5.5,B,left,0.78,12,0.68,15,0.76,11,0.66,14,-999,31.0,2,1,3,3.0,-1.0,3.0,0.0,0.0,0.0,0
23,3,3234.5,54,3789.89,3791.41,3.83,B,right,0.78,12,0.68,15,0.88,11,0.58,18,-999,1.0,2,3,1,3.0,-1.0,3.0,0.0,3.0,0.0,111
23,3,3234.5,55,3795.57,3797.09,5.83,C,left,0.72,13,0.62,14,0.85,11,0.55,18,-999,2.0,3,2,1,-3.0,0.0,-3.0,-1.0,0.0,0.0,111
23,3,3234.5,56,3803.26,3804.77,4.46,B,left,0.72,12,0.68,14,0.7,11,0.66,13,-999,31.0,2,1,3,-3.0,-1.0,3.0,-1.0,-3.0,0.0,101
23,3,3234.5,57,3809.57,3811.09,6.44,A,mid,0.78,13,0.68,15,0.76,12,0.66,14,-999,31.0,2,3,1,3.0,0.0,3.0,0.0,0.0,0.0,101
23,3,3234.5,58,3817.87,3819.38,11.52,B,mid,0.72,13,0.68,15,0.82,10,0.52,17,-999,1.0,1,2,3,-3.0,0.0,3.0,0.0,-3.0,-1.0,111
23,3,3234.5,59,3831.23,3832.75,6.88,A,right,0.78,13,0.65,14,0.82,11,0.52,18,-999,1.0,3,1,2,3.0,0.0,0.0,-1.0,-3.0,0.0,100
23,3,3234.5,60,3839.96,3841.48,9.77,A,left,0.72,13,0.62,14,0.7,12,0.6,13,-999,32.0,1,3,2,-3.0,0.0,-3.0,-1.0,0.0,0.0,101
23,3,3234.5,61,3851.59,3853.11,10.3,A,left,0.75,13,0.65,15,0.73,12,0.63,14,-999,31.0,1,3,2,0.0,0.0,0.0,0.0,0.0,-1.0,100
23,3,3234.5,62,3863.74,3865.25,10.37,A,mid,0.78,13,0.65,14,0.82,10,0.52,17,-999,2.0,2,3,1,3.0,0.0,0.0,-1.0,-3.0,-1.0,101
23,3,3234.5,63,3875.97,3877.48,11.26,C,mid,0.75,13,0.62,14,0.88,11,0.58,18,-999,2.0,1,3,2,0.0,0.0,-3.0,-1.0,3.0,0.0,111
23,3,3234.5,64,3889.08,3890.59,10.63,B,right,0.78,13,0.65,15,0.76,12,0.63,14,-999,32.0,2,3,1,3.0,0.0,0.0,0.0,0.0,0.0,10
23,3,3234.5,65,3901.56,3903.07,5.83,B,mid,0.78,13,0.68,15,0.88,10,0.58,17,-999,1.0,3,2,1,3.0,0.0,3.0,0.0,3.0,-1.0,0
23,3,3234.5,66,3909.24,3910.75,6.29,B,right,0.72,13,0.62,15,0.7,12,0.6,14,-999,32.0,2,3,1,-3.0,0.0,-3.0,0.0,0.0,0.0,111
23,3,3234.5,67,3917.39,3918.9,7.26,C,left,0.72,12,0.62,14,0.88,11,0.58,18,-999,2.0,2,3,1,-3.0,-1.0,-3.0,-1.0,3.0,0.0,10
23,3,3234.5,68,3926.5,3928.02,7.01,A,left,0.78,13,0.62,14,0.85,10,0.55,17,-999,1.0,1,3,2,3.0,0.0,-3.0,-1.0,0.0,-1.0,11
23,3,3234.5,69,3935.36,3936.88,9.76,B,right,0.72,12,0.68,15,0.88,11,0.58,18,-999,2.0,1,3,2,-3.0,-1.0,3.0,0.0,3.0,0.0,0
23,3,3234.5,70,3946.98,3948.49,14.29,B,left,0.78,12,0.65,15,0.76,11,0.63,14,-999,32.0,2,1,3,3.0,-1.0,0.0,0.0,-3.0,-1.0,110
23,3,3234.5,71,3963.12,3964.64,7.28,C,right,0.72,13,0.68,14,0.88,11,0.58,18,-999,2.0,2,1,3,-3.0,0.0,3.0,-1.0,3.0,0.0,111
23,3,3234.5,72,3972.25,3973.77,16.39,B,left,0.72,12,0.65,15,0.85,11,0.55,18,-999,2.0,2,1,3,-3.0,-1.0,0.0,0.0,0.0,0.0,111
23,3,3234.5,73,3990.5,3992.01,6.8,A,right,0.72,12,0.65,14,0.7,11,0.63,13,-999,31.0,3,1,2,-3.0,-1.0,0.0,-1.0,3.0,-1.0,0
23,3,3234.5,74,3999.14,4000.66,8.71,A,mid,0.75,13,0.65,15,0.73,12,0.63,14,-999,31.0,2,3,1,0.0,0.0,0.0,0.0,0.0,0.0,10
23,3,3234.5,75,4009.71,4011.22,9.85,B,mid,0.75,12,0.68,14,0.73,11,0.66,13,-999,31.0,3,2,1,0.0,-1.0,3.0,-1.0,0.0,-1.0,11
