subject,block,block_onset,trial,fixation_cross_onset,trial_onset,rt,choice,key,pA,mA,pB,mB,pCA,mCA,pCB,mCB,missing,condition,position_A,position_B,position_C,noise_Ap,noise_Am,noise_Bp,noise_Bm,noise_Cp,noise_Cm,attribute_positions
3,Practice,1401.93,P1,1401.97,1403.49,7.06,B,left,0.78,7,0.62,17,0.85,3,0.55,24,-999,2.0,3,1,2,3.0,-2.0,-3.0,2.0,0.0,-1.0,1
3,Practice,1401.93,P2,1410.91,1412.42,2.34,C,right,0.72,7,0.62,16,0.88,5,0.58,26,-999,2.0,1,2,3,-3.0,-2.0,-3.0,1.0,3.0,1.0,10
3,Practice,1401.93,P3,1415.1,1416.62,7.58,A,mid,0.75,11,0.68,13,0.85,4,0.55,25,-999,1.0,2,3,1,0.0,2.0,3.0,-2.0,0.0,0.0,110
3,Practice,1401.93,P4,1424.53,1426.05,5.35,B,left,0.75,9,0.65,15,0.88,5,0.58,26,-999,1.0,3,1,2,0.0,0.0,0.0,0.0,3.0,1.0,100
3,Practice,1401.93,P5,1431.73,1433.25,2.83,B,right,0.72,11,0.62,13,0.85,6,0.55,27,-999,1.0,1,3,2,-3.0,2.0,-3.0,-2.0,0.0,2.0,101
3,Practice,1401.93,P6,1436.41,1437.93,3.04,B,right,0.78,7,0.62,13,0.82,6,0.52,27,-999,2.0,2,3,1,3.0,-2.0,-3.0,-2.0,-3.0,2.0,110
3,Practice,1401.93,P7,1441.31,1442.83,5.35,B,left,0.75,7,0.65,17,0.85,5,0.55,26,-999,2.0,2,1,3,0.0,-2.0,0.0,2.0,0.0,1.0,111
3,Practice,1401.93,P8,1448.51,1450.03,5.74,C,mid,0.72,8,0.68,15,0.82,6,0.52,27,-999,2.0,3,1,2,-3.0,-1.0,3.0,0.0,-3.0,2.0,110
3,Practice,1401.93,P9,1456.11,1457.62,2.61,B,left,0.78,8,0.62,16,0.88,5,0.58,26,-999,1.0,3,1,2,3.0,-1.0,-3.0,1.0,3.0,1.0,1
3,Practice,1401.93,P10,1460.57,1462.09,4.68,A,left,0.75,10,0.65,16,0.82,2,0.52,23,-999,2.0,1,2,3,0.0,1.0,0.0,1.0,-3.0,-2.0,101
3,Practice,1401.93,P11,1467.1,1468.62,3.15,C,left,0.72,8,0.65,15,0.85,5,0.55,26,-999,2.0,2,3,1,-3.0,-1.0,0.0,0.0,0.0,1.0,0
3,Practice,1401.93,P12,1472.12,1473.64,2.55,B,right,0.72,8,0.68,15,0.85,5,0.55,26,-999,1.0,2,3,1,-3.0,-1.0,3.0,0.0,0.0,1.0,101
3,Practice,1401.93,P13,1476.53,1478.05,2.73,B,left,0.78,11,0.68,16,0.88,5,0.58,26,-999,1.0,2,1,3,3.0,2.0,3.0,1.0,3.0,1.0,111
3,Practice,1401.93,P14,1481.12,1482.63,2.78,A,right,0.72,11,0.62,17,0.82,3,0.52,24,-999,2.0,3,2,1,-3.0,2.0,-3.0,2.0,-3.0,-1.0,0
3,Practice,1401.93,P15,1485.75,1487.26,3.48,C,left,0.78,7,0.68,14,0.88,5,0.58,26,-999,2.0,2,3,1,3.0,-2.0,3.0,-1.0,3.0,1.0,10
3,Practice,1401.93,P16,1491.08,1492.6,4.45,B,left,0.78,7,0.65,13,0.82,2,0.52,23,-999,2.0,2,1,3,3.0,-2.0,0.0,-2.0,-3.0,-2.0,1
3,Practice,1401.93,P17,1497.38,1498.89,6.22,A,right,0.72,10,0.65,13,0.82,5,0.52,26,-999,2.0,3,2,1,-3.0,1.0,0.0,-2.0,-3.0,1.0,110
3,Practice,1401.93,P18,1505.46,1506.97,3.99,B,left,0.78,7,0.68,13,0.88,2,0.58,23,-999,2.0,3,1,2,3.0,-2.0,3.0,-2.0,3.0,-2.0,10
3,Practice,1401.93,P19,1511.31,1512.82,4.7,A,right,0.78,11,0.62,15,0.85,4,0.55,25,-999,1.0,3,1,2,3.0,2.0,-3.0,0.0,0.0,0.0,110
3,Practice,1401.93,P20,1517.85,1519.37,4.32,B,right,0.72,7,0.65,14,0.88,4,0.58,25,-999,1.0,1,3,2,-3.0,-2.0,0.0,-1.0,3.0,0.0,11
3,Practice,1401.93,P21,1524.02,1525.54,4.28,B,left,0.78,9,0.65,16,0.85,2,0.55,23,-999,1.0,3,1,2,3.0,0.0,0.0,1.0,0.0,-2.0,0
3,Practice,1401.93,P22,1530.15,1531.67,2.16,C,mid,0.72,9,0.62,15,0.85,2,0.55,23,-999,1.0,1,3,2,-3.0,0.0,-3.0,0.0,0.0,-2.0,10
3,Practice,1401.93,P23,1534.17,1535.68,3.02,B,left,0.72,7,0.65,13,0.88,3,0.58,24,-999,1.0,3,1,2,-3.0,-2.0,0.0,-2.0,3.0,-1.0,100
3,Practice,1401.93,P24,1539.03,1540.55,2.78,C,right,0.78,7,0.65,13,0.82,5,0.52,26,-999,2.0,2,1,3,3.0,-2.0,0.0,-2.0,-3.0,1.0,10
3,Practice,1401.93,P25,1543.66,1545.18,3.95,A,mid,0.78,10,0.68,13,0.85,4,0.55,25,-999,1.0,2,3,1,3.0,1.0,3.0,-2.0,0.0,0.0,111
3,Estimation1,1637.11,E1,1637.18,1638.7,3.97,B,left,0.75,11,0.65,15,0.85,-999,0.55,20,3,,2,1,3,,,,,,,11
3,Estimation1,1637.11,E2,1643.0,1644.51,2.91,B,right,0.75,12,0.65,15,0.85,-999,0.55,20,1,2.0,1,3,2,,,,,,,101
3,Estimation1,1637.11,E3,1647.75,1649.26,4.04,A,right,0.75,12,0.65,15,0.85,-999,0.55,28,3,,3,1,2,,,,,,,100
3,Estimation1,1637.11,E4,1653.65,1655.16,3.03,C,left,0.75,12,0.65,15,0.85,6,0.55,28,1,2.0,2,3,1,,,,,,,101
3,Estimation1,1637.11,E5,1658.53,1660.04,2.95,A,left,0.75,12,0.65,15,0.85,6,0.55,24,2,1.0,1,2,3,,,,,,,1
3,Estimation1,1637.11,E6,1663.34,1664.86,3.04,C,right,0.75,12,0.65,15,0.85,8,0.55,24,1,2.0,2,1,3,,,,,,,101
3,Estimation1,1637.11,E7,1668.24,1669.76,2.49,A,left,0.75,12,0.65,15,0.85,8,0.55,22,2,1.0,1,2,3,,,,,,,100
3,Estimation1,1637.11,E8,1672.59,1674.11,2.24,C,left,0.75,12,0.65,15,0.85,9,0.55,22,1,2.0,2,3,1,,,,,,,100
3,Estimation1,1637.11,E9,1676.69,1678.2,3.26,A,right,0.75,12,0.65,15,0.85,9,0.55,21,2,1.0,3,2,1,,,,,,,100
3,Estimation1,1637.11,E10,1681.8,1683.32,3.03,B,right,0.75,12,0.65,15,0.85,10,0.55,21,1,2.0,1,3,2,,,,,,,0
3,Estimation1,1637.11,E11,1686.68,1688.2,6.08,A,left,0.75,12,0.65,15,0.85,10,0.55,22,2,1.0,1,2,3,,,,,,,101
3,Estimation1,1637.11,E12,1694.62,1696.13,4.54,B,left,0.75,12,0.65,15,0.85,10,0.55,22,1,2.0,2,1,3,,,,,,,110
3,1,1702.94,1,1703.01,1704.53,9.25,A,right,0.19,52,0.59,16,0.81,12,-999.0,-999,-999,99.0,3,2,1,0.0,0.0,0.0,0.0,0.0,0.0,101
3,1,1702.94,2,1714.11,1715.63,4.38,B,right,0.72,11,0.68,15,0.88,10,0.58,22,-999,2.0,1,3,2,-3.0,-1.0,3.0,0.0,3.0,0.0,0
3,1,1702.94,3,1720.34,1721.86,4.4,A,left,0.78,12,0.65,15,0.76,11,0.63,14,-999,32.0,1,3,2,3.0,0.0,0.0,0.0,-3.0,-1.0,0
3,1,1702.94,4,1726.59,1728.11,4.09,A,mid,0.75,12,0.65,15,0.73,11,0.63,14,-999,31.0,2,1,3,0.0,0.0,0.0,0.0,0.0,-1.0,111
3,1,1702.94,5,1732.54,1734.05,5.81,A,left,0.75,12,0.62,14,0.88,10,0.58,22,-999,2.0,1,3,2,0.0,0.0,-3.0,-1.0,3.0,0.0,110
3,1,1702.94,6,1740.2,1741.72,5.44,A,left,0.75,12,0.65,14,0.73,11,0.63,13,-999,31.0,1,3,2,0.0,0.0,0.0,-1.0,0.0,0.0,111
3,1,1702.94,7,1747.5,1749.02,3.48,A,right,0.72,12,0.68,14,0.7,11,0.66,13,-999,32.0,3,2,1,-3.0,0.0,3.0,-1.0,0.0,-1.0,111
3,1,1702.94,8,1752.83,1754.35,4.4,C,mid,0.78,11,0.62,15,0.85,9,0.55,21,-999,1.0,1,3,2,3.0,-1.0,-3.0,0.0,0.0,-1.0,101
3,1,1702.94,9,1759.08,1760.59,4.57,B,mid,0.75,12,0.65,15,0.85,10,0.55,22,-999,1.0,1,2,3,0.0,0.0,0.0,0.0,0.0,0.0,101
3,1,1702.94,10,1765.51,1767.03,4.94,A,right,0.75,12,0.65,15,0.73,11,0.63,14,-999,31.0,3,2,1,0.0,0.0,0.0,0.0,0.0,0.0,1
3,1,1702.94,11,1772.31,1773.82,4.95,C,mid,0.24,41,0.37,27,0.76,13,-999.0,-999,-999,99.0,1,3,2,0.0,0.0,0.0,0.0,0.0,0.0,100
3,1,1702.94,12,1779.11,1780.62,5.74,A,mid,0.19,52,0.56,17,0.8,12,-999.0,-999,-999,99.0,2,3,1,0.0,0.0,0.0,0.0,0.0,0.0,101
3,1,1702.94,13,1786.7,1788.22,5.94,C,left,0.75,12,0.62,15,0.88,9,0.58,21,-999,1.0,3,2,1,0.0,0.0,-3.0,0.0,3.0,-1.0,111
3,1,1702.94,14,1794.5,1796.02,4.05,B,right,0.78,11,0.68,14,0.76,10,0.66,13,-999,32.0,1,3,2,3.0,-1.0,3.0,-1.0,3.0,-1.0,101
3,1,1702.94,15,1800.4,1801.92,4.35,C,mid,0.78,11,0.68,15,0.88,10,0.58,22,-999,1.0,3,1,2,3.0,-1.0,3.0,0.0,3.0,0.0,0
3,1,1702.94,16,1806.61,1808.13,2.67,C,mid,0.72,11,0.65,15,0.85,10,0.55,22,-999,2.0,3,1,2,-3.0,-1.0,0.0,0.0,0.0,0.0,0
3,1,1702.94,17,1811.13,1812.65,5.27,B,left,0.72,12,0.65,15,0.82,9,0.52,21,-999,2.0,3,1,2,-3.0,0.0,0.0,0.0,-3.0,-1.0,111
3,1,1702.94,18,1818.26,1819.78,4.52,C,mid,0.32,31,0.48,20,0.85,11,-999.0,-999,-999,99.0,3,1,2,0.0,0.0,0.0,0.0,0.0,0.0,10
3,1,1702.94,19,1824.64,1826.16,6.41,A,right,0.72,12,0.68,15,0.82,9,0.52,21,-999,1.0,3,2,1,-3.0,0.0,3.0,0.0,-3.0,-1.0,110
3,1,1702.94,20,1832.91,1834.42,6.1,A,mid,0.72,11,0.65,14,0.7,10,0.63,13,-999,31.0,2,1,3,-3.0,-1.0,0.0,-1.0,3.0,-1.0,0
3,1,1702.94,21,1840.87,1842.39,4.66,C,right,0.75,12,0.65,15,0.82,9,0.52,21,-999,1.0,2,1,3,0.0,0.0,0.0,0.0,-3.0,-1.0,11
3,1,1702.94,22,1847.38,1848.9,3.87,A,mid,0.72,12,0.62,14,0.85,10,0.55,22,-999,2.0,2,1,3,-3.0,0.0,-3.0,-1.0,0.0,0.0,101
3,1,1702.94,23,1853.12,1854.63,3.03,C,right,0.75,11,0.68,15,0.88,10,0.58,22,-999,1.0,2,1,3,0.0,-1.0,3.0,0.0,3.0,0.0,1
3,1,1702.94,24,1858.0,1859.51,4.31,C,left,0.78,12,0.68,15,0.82,10,0.52,22,-999,1.0,2,3,1,3.0,0.0,3.0,0.0,-3.0,0.0,11
3,1,1702.94,25,1864.16,1865.68,5.32,A,left,0.75,11,0.65,14,0.73,10,0.63,13,-999,32.0,1,2,3,0.0,-1.0,0.0,-1.0,3.0,0.0,100
3,1,1702.94,26,1871.34,1872.86,2.62,A,left,0.78,11,0.68,15,0.76,10,0.66,14,-999,31.0,1,3,2,3.0,-1.0,3.0,0.0,0.0,0.0,11
3,1,1702.94,27,1875.83,1877.34,3.6,A,left,0.72,12,0.62,15,0.7,11,0.6,14,-999,31.0,1,2,3,-3.0,0.0,-3.0,0.0,0.0,-1.0,101
3,1,1702.94,28,1881.27,1882.79,3.73,A,left,0.75,12,0.65,14,0.73,11,0.63,13,-999,31.0,1,2,3,0.0,0.0,0.0,-1.0,-3.0,-1.0,111
3,1,1702.94,29,1886.85,1888.37,3.55,C,right,0.75,11,0.62,15,0.88,10,0.58,22,-999,1.0,2,1,3,0.0,-1.0,-3.0,0.0,3.0,0.0,101
3,1,1702.94,30,1892.25,1893.77,4.38,A,mid,0.72,12,0.62,14,0.85,10,0.55,22,-999,2.0,2,3,1,-3.0,0.0,-3.0,-1.0,0.0,0.0,100
3,1,1702.94,31,1898.48,1900.0,5.47,C,right,0.78,11,0.68,15,0.85,9,0.55,21,-999,1.0,2,1,3,3.0,-1.0,3.0,0.0,0.0,-1.0,0
3,1,1702.94,32,1905.82,1907.33,6.25,C,left,0.78,12,0.62,14,0.85,9,0.55,21,-999,1.0,2,3,1,3.0,0.0,-3.0,-1.0,0.0,-1.0,110
3,1,1702.94,33,1913.91,1915.43,2.49,A,left,0.78,12,0.62,14,0.85,10,0.55,22,-999,2.0,1,2,3,3.0,0.0,-3.0,-1.0,0.0,0.0,10
3,1,1702.94,34,1918.26,1919.78,3.89,A,left,0.75,11,0.62,15,0.73,10,0.6,14,-999,32.0,1,3,2,0.0,-1.0,-3.0,0.0,-3.0,0.0,100
3,1,1702.94,35,1924.01,1925.53,3.68,A,right,0.75,11,0.68,14,0.85,9,0.55,21,-999,2.0,3,1,2,0.0,-1.0,3.0,-1.0,0.0,-1.0,110
3,1,1702.94,36,1929.61,1931.12,3.09,B,right,0.75,11,0.68,14,0.73,10,0.66,13,-999,31.0,2,3,1,0.0,-1.0,3.0,-1.0,0.0,-1.0,0
3,1,1702.94,37,1934.56,1936.07,5.34,B,left,0.32,31,0.6,16,0.78,12,-999.0,-999,-999,99.0,2,1,3,0.0,0.0,0.0,0.0,0.0,0.0,111
3,1,1702.94,38,1963.7,1965.21,4.68,A,left,0.75,11,0.68,14,0.73,10,0.66,13,-999,32.0,1,2,3,0.0,-1.0,3.0,-1.0,0.0,0.0,100
3,1,1702.94,39,1970.23,1971.74,2.66,A,left,0.78,11,0.62,15,0.76,10,0.6,14,-999,32.0,1,2,3,3.0,-1.0,-3.0,0.0,-3.0,-1.0,110
3,1,1702.94,40,1974.74,1976.26,3.38,C,right,0.75,12,0.65,14,0.85,9,0.55,21,-999,2.0,1,2,3,0.0,0.0,0.0,-1.0,0.0,-1.0,11
3,1,1702.94,41,1979.98,1981.49,5.87,A,right,0.72,11,0.62,14,0.88,10,0.58,22,-999,2.0,3,1,2,-3.0,-1.0,-3.0,-1.0,3.0,0.0,110
3,1,1702.94,42,1987.71,1989.22,4.52,A,mid,0.78,12,0.65,14,0.82,9,0.52,21,-999,2.0,2,1,3,3.0,0.0,0.0,-1.0,-3.0,-1.0,110
3,1,1702.94,43,1994.09,1995.6,6.04,C,mid,0.27,37,0.47,21,0.86,11,-999.0,-999,-999,99.0,1,3,2,0.0,0.0,0.0,0.0,0.0,0.0,1
3,1,1702.94,44,2001.99,2003.5,6.54,B,mid,0.72,12,0.68,15,0.82,10,0.52,22,-999,2.0,1,2,3,-3.0,0.0,3.0,0.0,-3.0,0.0,110
3,1,1702.94,45,2010.38,2011.9,4.08,C,mid,0.72,12,0.68,15,0.82,9,0.52,21,-999,1.0,3,1,2,-3.0,0.0,3.0,0.0,-3.0,-1.0,10
3,1,1702.94,46,2016.31,2017.83,4.18,C,left,0.72,12,0.65,15,0.82,9,0.52,21,-999,1.0,3,2,1,-3.0,0.0,0.0,0.0,-3.0,-1.0,1
3,1,1702.94,47,2022.35,2023.86,5.82,A,mid,0.72,11,0.62,15,0.7,10,0.6,14,-999,32.0,2,1,3,-3.0,-1.0,-3.0,0.0,-3.0,-1.0,10
3,1,1702.94,48,2030.03,2031.54,4.94,C,left,0.28,35,0.67,14,0.78,12,-999.0,-999,-999,99.0,2,3,1,0.0,0.0,0.0,0.0,0.0,0.0,11
3,1,1702.94,49,2036.82,2038.34,3.23,A,left,0.72,11,0.65,15,0.7,10,0.63,14,-999,31.0,1,2,3,-3.0,-1.0,0.0,0.0,3.0,-1.0,10
3,1,1702.94,50,2041.91,2043.42,2.6,A,left,0.72,12,0.62,15,0.7,11,0.6,14,-999,32.0,1,2,3,-3.0,0.0,-3.0,0.0,0.0,0.0,11
3,1,1702.94,51,2046.37,2047.89,5.91,A,right,0.78,12,0.62,14,0.76,11,0.6,13,-999,31.0,3,2,1,3.0,0.0,-3.0,-1.0,-3.0,0.0,0
3,1,1702.94,52,2054.14,2055.65,5.3,A,mid,0.75,11,0.65,15,0.73,10,0.63,14,-999,31.0,2,1,3,0.0,-1.0,0.0,0.0,3.0,-1.0,1
3,1,1702.94,53,2061.3,2062.82,2.93,A,mid,0.78,11,0.65,15,0.76,10,0.63,14,-999,32.0,2,1,3,3.0,-1.0,0.0,0.0,-3.0,-1.0,10
3,1,1702.94,54,2066.08,2067.6,3.96,C,right,0.78,12,0.65,14,0.82,10,0.52,22,-999,1.0,1,2,3,3.0,0.0,0.0,-1.0,-3.0,0.0,0
3,1,1702.94,55,2071.9,2073.41,4.73,A,mid,0.72,12,0.62,14,0.7,11,0.6,13,-999,32.0,2,1,3,-3.0,0.0,-3.0,-1.0,0.0,0.0,100
3,1,1702.94,56,2078.48,2079.99,4.36,B,mid,0.72,11,0.68,14,0.7,10,0.66,13,-999,31.0,1,2,3,-3.0,-1.0,3.0,-1.0,-3.0,0.0,0
3,1,1702.94,57,2084.69,2086.21,1.71,C,left,0.72,12,0.68,14,0.88,10,0.58,22,-999,2.0,2,3,1,-3.0,0.0,3.0,-1.0,3.0,0.0,10
3,1,1702.94,58,2088.26,2089.77,2.46,B,mid,0.78,11,0.62,14,0.76,10,0.6,13,-999,32.0,1,2,3,3.0,-1.0,-3.0,-1.0,0.0,-1.0,101
3,1,1702.94,59,2092.57,2094.09,2.22,A,left,0.72,12,0.65,14,0.7,11,0.63,13,-999,32.0,1,3,2,-3.0,0.0,0.0,-1.0,3.0,0.0,111
3,1,1702.94,60,2096.64,2098.15,3.85,A,mid,0.72,11,0.65,15,0.7,10,0.63,14,-999,31.0,2,1,3,-3.0,-1.0,0.0,0.0,3.0,-1.0,100
3,1,1702.94,61,2102.34,2103.85,4.5,C,mid,0.72,11,0.65,15,0.88,9,0.58,21,-999,2.0,3,1,2,-3.0,-1.0,0.0,0.0,3.0,-1.0,110
3,1,1702.94,62,2108.68,2110.2,2.97,C,left,0.29,34,0.42,23,0.72,13,-999.0,-999,-999,99.0,3,2,1,0.0,0.0,0.0,0.0,0.0,0.0,1
3,1,1702.94,63,2113.57,2115.08,2.31,C,mid,0.31,32,0.38,26,0.85,11,-999.0,-999,-999,99.0,3,1,2,0.0,0.0,0.0,0.0,0.0,0.0,111
3,1,1702.94,64,2117.73,2119.25,3.51,A,right,0.78,11,0.62,15,0.76,10,0.6,14,-999,31.0,3,2,1,3.0,-1.0,-3.0,0.0,0.0,0.0,0
3,1,1702.94,65,2123.1,2124.61,3.68,A,left,0.16,62,0.46,21,0.87,11,-999.0,-999,-999,99.0,1,2,3,0.0,0.0,0.0,0.0,0.0,0.0,0
3,1,1702.94,66,2128.63,2130.14,6.35,B,right,0.72,12,0.62,15,0.7,11,0.6,14,-999,32.0,2,3,1,-3.0,0.0,-3.0,0.0,3.0,-1.0,110
3,1,1702.94,67,2136.84,2138.36,3.59,A,mid,0.78,12,0.62,15,0.76,11,0.6,14,-999,32.0,2,1,3,3.0,0.0,-3.0,0.0,3.0,0.0,101
3,1,1702.94,68,2142.27,2143.79,2.74,A,mid,0.78,12,0.65,15,0.76,11,0.63,14,-999,32.0,2,1,3,3.0,0.0,0.0,0.0,0.0,0.0,111
3,1,1702.94,69,2146.87,2148.39,2.96,C,mid,0.78,12,0.68,15,0.88,9,0.58,21,-999,1.0,1,3,2,3.0,0.0,3.0,0.0,3.0,-1.0,10
3,1,1702.94,70,2151.69,2153.2,2.99,A,left,0.78,12,0.68,15,0.76,11,0.66,14,-999,31.0,1,2,3,3.0,0.0,3.0,0.0,0.0,0.0,111
3,1,1702.94,71,2156.54,2158.05,2.28,A,right,0.75,11,0.62,15,0.88,9,0.58,21,-999,2.0,3,1,2,0.0,-1.0,-3.0,0.0,3.0,-1.0,111
3,1,1702.94,72,2160.67,2162.18,3.46,A,right,0.72,11,0.68,14,0.85,10,0.55,22,-999,2.0,3,2,1,-3.0,-1.0,3.0,-1.0,0.0,0.0,100
3,1,1702.94,73,2165.98,2167.5,4.5,C,mid,0.27,37,0.61,16,0.89,11,-999.0,-999,-999,99.0,3,1,2,0.0,0.0,0.0,0.0,0.0,0.0,0
3,1,1702.94,74,2172.33,2173.85,7.13,C,mid,0.78,12,0.65,14,0.82,9,0.52,21,-999,1.0,1,3,2,3.0,0.0,0.0,-1.0,-3.0,-1.0,110
3,1,1702.94,75,2181.31,2182.83,2.94,A,right,0.72,12,0.65,15,0.7,11,0.63,14,-999,31.0,3,1,2,-3.0,0.0,0.0,0.0,-3.0,-1.0,110
3,Estimation2,2256.65,E1,2256.7,2258.22,4.25,B,left,0.75,11,0.65,15,0.85,-999,0.55,20,3,,2,1,3,,,,,,,110
3,Estimation2,2256.65,E2,2262.8,2264.32,7.2,C,left,0.75,12,0.65,15,0.85,-999,0.55,20,1,2.0,3,2,1,,,,,,,110
3,Estimation2,2256.65,E3,2271.87,2273.38,2.07,A,right,0.75,12,0.65,15,0.85,-999,0.55,18,3,,3,2,1,,,,,,,100
3,Estimation2,2256.65,E4,2275.8,2277.32,4.16,B,left,0.75,12,0.65,15,0.85,6,0.55,18,1,2.0,2,1,3,,,,,,,110
3,Estimation2,2256.65,E5,2281.81,2283.33,2.09,A,left,0.75,12,0.65,15,0.85,6,0.55,19,2,1.0,1,2,3,,,,,,,0
3,Estimation2,2256.65,E6,2285.76,2287.28,2.29,B,left,0.75,12,0.65,15,0.85,8,0.55,19,1,2.0,3,1,2,,,,,,,1
3,Estimation2,2256.65,E7,2289.91,2291.43,5.57,A,left,0.75,12,0.65,15,0.85,8,0.55,20,2,1.0,1,3,2,,,,,,,1
3,Estimation2,2256.65,E8,2297.33,2298.84,3.81,B,right,0.75,12,0.65,15,0.85,9,0.55,20,1,2.0,1,3,2,,,,,,,0
3,Estimation2,2256.65,E9,2302.99,2304.51,4.18,C,right,0.75,12,0.65,15,0.85,9,0.55,20,2,1.0,1,2,3,,,,,,,0
3,2,2310.83,1,2310.89,2312.4,7.56,C,mid,0.16,62,0.46,21,0.87,11,-999.0,-999,-999,99.0,1,3,2,0.0,0.0,0.0,0.0,0.0,0.0,111
3,2,2310.83,2,2320.3,2321.82,2.61,A,left,0.78,12,0.65,15,0.76,11,0.63,14,-999,32.0,1,2,3,3.0,0.0,0.0,0.0,-3.0,-1.0,111
3,2,2310.83,3,2324.77,2326.28,4.21,B,mid,0.72,11,0.62,15,0.7,10,0.6,14,-999,32.0,3,2,1,-3.0,-1.0,-3.0,0.0,-3.0,-1.0,111
3,2,2310.83,4,2330.83,2332.35,4.71,C,left,0.75,11,0.68,15,0.88,9,0.58,20,-999,1.0,3,2,1,0.0,-1.0,3.0,0.0,3.0,0.0,110
3,2,2310.83,5,2337.4,2338.91,10.12,A,mid,0.75,11,0.62,15,0.88,8,0.58,19,-999,2.0,2,3,1,0.0,-1.0,-3.0,0.0,3.0,-1.0,110
3,2,2310.83,6,2349.38,2350.89,5.02,B,left,0.72,12,0.62,15,0.7,11,0.6,14,-999,31.0,3,1,2,-3.0,0.0,-3.0,0.0,0.0,-1.0,11
3,2,2310.83,7,2356.26,2357.77,3.14,C,right,0.32,31,0.48,20,0.85,11,-999.0,-999,-999,99.0,1,2,3,0.0,0.0,0.0,0.0,0.0,0.0,101
3,2,2310.83,8,2361.26,2362.77,3.14,B,right,0.75,11,0.68,14,0.73,10,0.66,13,-999,31.0,1,3,2,0.0,-1.0,3.0,-1.0,0.0,-1.0,111
3,2,2310.83,9,2366.25,2367.77,3.7,A,mid,0.75,12,0.65,15,0.73,11,0.63,14,-999,31.0,2,1,3,0.0,0.0,0.0,0.0,0.0,-1.0,11
3,2,2310.83,10,2371.8,2373.32,5.05,A,mid,0.72,12,0.62,15,0.7,11,0.6,14,-999,32.0,2,1,3,-3.0,0.0,-3.0,0.0,0.0,0.0,100
3,2,2310.83,11,2378.7,2380.22,2.79,C,left,0.78,12,0.68,15,0.88,8,0.58,19,-999,1.0,3,2,1,3.0,0.0,3.0,0.0,3.0,-1.0,0
3,2,2310.83,12,2383.35,2384.86,4.33,A,mid,0.78,11,0.62,15,0.76,10,0.6,14,-999,31.0,2,3,1,3.0,-1.0,-3.0,0.0,0.0,0.0,111
3,2,2310.83,13,2389.53,2391.05,2.8,A,right,0.78,12,0.65,14,0.82,8,0.52,19,-999,1.0,3,2,1,3.0,0.0,0.0,-1.0,-3.0,-1.0,0
3,2,2310.83,14,2394.18,2395.69,4.01,C,right,0.27,37,0.47,21,0.86,11,-999.0,-999,-999,99.0,2,1,3,0.0,0.0,0.0,0.0,0.0,0.0,1
3,2,2310.83,15,2400.04,2401.56,2.09,A,right,0.19,52,0.56,17,0.8,12,-999.0,-999,-999,99.0,3,2,1,0.0,0.0,0.0,0.0,0.0,0.0,10
3,2,2310.83,16,2403.99,2405.51,4.16,A,right,0.78,11,0.68,15,0.85,8,0.55,19,-999,1.0,3,1,2,3.0,-1.0,3.0,0.0,0.0,-1.0,110
3,2,2310.83,17,2410.01,2411.52,3.28,A,right,0.72,11,0.62,14,0.88,9,0.58,20,-999,2.0,3,1,2,-3.0,-1.0,-3.0,-1.0,3.0,0.0,0
3,2,2310.83,18,2415.14,2416.65,2.54,C,right,0.72,12,0.65,14,0.7,11,0.63,13,-999,32.0,2,1,3,-3.0,0.0,0.0,-1.0,3.0,0.0,110
3,2,2310.83,19,2419.54,2421.05,2.79,B,left,0.75,11,0.68,14,0.85,8,0.55,19,-999,2.0,3,1,2,0.0,-1.0,3.0,-1.0,0.0,-1.0,110
3,2,2310.83,20,2424.17,2425.68,3.99,A,left,0.72,11,0.68,15,0.88,9,0.58,20,-999,2.0,1,3,2,-3.0,-1.0,3.0,0.0,3.0,0.0,0
3,2,2310.83,21,2430.02,2431.53,2.33,A,right,0.78,12,0.62,14,0.85,9,0.55,20,-999,2.0,3,2,1,3.0,0.0,-3.0,-1.0,0.0,0.0,1
3,2,2310.83,22,2434.2,2435.72,2.82,B,right,0.72,12,0.65,15,0.82,8,0.52,19,-999,1.0,2,3,1,-3.0,0.0,0.0,0.0,-3.0,-1.0,11
3,2,2310.83,23,2438.88,2440.4,2.98,A,left,0.78,12,0.62,14,0.76,11,0.6,13,-999,31.0,1,3,2,3.0,0.0,-3.0,-1.0,-3.0,0.0,10
3,2,2310.83,24,2443.71,2445.23,1.79,A,right,0.72,12,0.62,14,0.7,11,0.6,13,-999,32.0,3,2,1,-3.0,0.0,-3.0,-1.0,0.0,0.0,10
3,2,2310.83,25,2447.34,2448.86,2.07,A,right,0.78,11,0.68,14,0.76,10,0.66,13,-999,32.0,3,1,2,3.0,-1.0,3.0,-1.0,3.0,-1.0,11
3,2,2310.83,26,2451.26,2452.78,2.38,A,mid,0.72,11,0.65,15,0.7,10,0.63,14,-999,31.0,2,3,1,-3.0,-1.0,0.0,0.0,3.0,-1.0,101
3,2,2310.83,27,2455.49,2457.01,1.52,A,right,0.72,11,0.65,15,0.7,10,0.63,14,-999,31.0,3,2,1,-3.0,-1.0,0.0,0.0,3.0,-1.0,10
3,2,2310.83,28,2458.86,2460.37,1.86,A,right,0.28,35,0.67,14,0.78,12,-999.0,-999,-999,99.0,3,2,1,0.0,0.0,0.0,0.0,0.0,0.0,111
3,2,2310.83,29,2462.57,2464.09,3.63,C,mid,0.78,11,0.62,15,0.85,8,0.55,19,-999,1.0,3,1,2,3.0,-1.0,-3.0,0.0,0.0,-1.0,10
3,2,2310.83,30,2468.05,2469.57,2.55,C,left,0.78,12,0.68,15,0.82,9,0.52,20,-999,1.0,2,3,1,3.0,0.0,3.0,0.0,-3.0,0.0,100
3,2,2310.83,31,2472.45,2473.97,2.48,A,left,0.72,11,0.65,15,0.88,8,0.58,19,-999,2.0,1,2,3,-3.0,-1.0,0.0,0.0,3.0,-1.0,11
3,2,2310.83,32,2476.79,2478.3,3.16,A,mid,0.72,12,0.62,14,0.85,9,0.55,20,-999,2.0,2,3,1,-3.0,0.0,-3.0,-1.0,0.0,0.0,1
3,2,2310.83,33,2481.8,2483.32,4.46,B,right,0.72,12,0.68,15,0.82,9,0.52,20,-999,2.0,1,3,2,-3.0,0.0,3.0,0.0,-3.0,0.0,0
3,2,2310.83,34,2488.12,2489.63,3.86,A,right,0.78,11,0.65,15,0.76,10,0.63,14,-999,32.0,3,1,2,3.0,-1.0,0.0,0.0,-3.0,-1.0,100
3,2,2310.83,35,2493.83,2495.35,3.96,A,left,0.72,12,0.65,15,0.7,11,0.63,14,-999,31.0,1,2,3,-3.0,0.0,0.0,0.0,-3.0,-1.0,0
3,2,2310.83,36,2499.64,2501.16,3.34,C,right,0.19,52,0.59,16,0.81,12,-999.0,-999,-999,99.0,2,1,3,0.0,0.0,0.0,0.0,0.0,0.0,10
3,2,2310.83,37,2504.84,2506.36,4.86,A,left,0.78,11,0.62,15,0.76,10,0.6,14,-999,32.0,1,3,2,3.0,-1.0,-3.0,0.0,-3.0,-1.0,111
3,2,2310.83,38,2547.81,2549.33,7.85,A,left,0.78,11,0.68,15,0.76,10,0.66,14,-999,31.0,1,2,3,3.0,-1.0,3.0,0.0,0.0,0.0,10
3,2,2310.83,39,2557.53,2559.04,6.1,A,right,0.72,11,0.68,14,0.7,10,0.66,13,-999,31.0,3,2,1,-3.0,-1.0,3.0,-1.0,-3.0,0.0,100
3,2,2310.83,40,2565.47,2566.99,2.54,A,left,0.75,11,0.62,15,0.73,10,0.6,14,-999,32.0,1,2,3,0.0,-1.0,-3.0,0.0,-3.0,0.0,101
3,2,2310.83,41,2569.87,2571.39,2.75,A,left,0.78,12,0.65,14,0.82,8,0.52,19,-999,2.0,1,3,2,3.0,0.0,0.0,-1.0,-3.0,-1.0,11
3,2,2310.83,42,2574.47,2575.99,2.58,A,left,0.72,12,0.62,15,0.7,11,0.6,14,-999,32.0,1,3,2,-3.0,0.0,-3.0,0.0,3.0,-1.0,11
3,2,2310.83,43,2578.9,2580.42,2.06,A,right,0.75,12,0.65,14,0.73,11,0.63,13,-999,31.0,3,1,2,0.0,0.0,0.0,-1.0,-3.0,-1.0,111
3,2,2310.83,44,2582.82,2584.33,2.43,C,mid,0.27,37,0.61,16,0.89,11,-999.0,-999,-999,99.0,1,3,2,0.0,0.0,0.0,0.0,0.0,0.0,111
3,2,2310.83,45,2587.1,2588.62,3.06,B,left,0.72,12,0.65,15,0.82,8,0.52,19,-999,2.0,2,1,3,-3.0,0.0,0.0,0.0,-3.0,-1.0,10
3,2,2310.83,46,2592.02,2593.53,3.54,C,right,0.72,12,0.68,15,0.82,8,0.52,19,-999,1.0,1,2,3,-3.0,0.0,3.0,0.0,-3.0,-1.0,0
3,2,2310.83,47,2597.41,2598.93,2.33,B,left,0.75,12,0.62,14,0.88,9,0.58,20,-999,2.0,3,1,2,0.0,0.0,-3.0,-1.0,3.0,0.0,0
3,2,2310.83,48,2601.6,2603.11,2.71,C,right,0.75,12,0.65,14,0.73,11,0.63,13,-999,31.0,1,2,3,0.0,0.0,0.0,-1.0,0.0,0.0,100
3,2,2310.83,49,2606.16,2607.68,3.0,A,mid,0.78,12,0.65,15,0.76,11,0.63,14,-999,32.0,2,1,3,3.0,0.0,0.0,0.0,0.0,0.0,101
3,2,2310.83,50,2611.01,2612.53,2.94,C,right,0.78,12,0.62,14,0.85,8,0.55,19,-999,1.0,1,2,3,3.0,0.0,-3.0,-1.0,0.0,-1.0,100
3,2,2310.83,51,2615.79,2617.31,2.64,A,mid,0.72,11,0.68,14,0.85,9,0.55,20,-999,2.0,2,3,1,-3.0,-1.0,3.0,-1.0,0.0,0.0,11
3,2,2310.83,52,2620.29,2621.81,3.14,A,right,0.72,12,0.68,15,0.82,8,0.52,19,-999,1.0,3,2,1,-3.0,0.0,3.0,0.0,-3.0,-1.0,11
3,2,2310.83,53,2625.27,2626.79,1.75,C,right,0.72,12,0.68,14,0.7,11,0.66,13,-999,32.0,2,1,3,-3.0,0.0,3.0,-1.0,0.0,-1.0,10
3,2,2310.83,54,2628.89,2630.4,1.71,A,left,0.32,31,0.6,16,0.78,12,-999.0,-999,-999,99.0,1,3,2,0.0,0.0,0.0,0.0,0.0,0.0,10
3,2,2310.83,55,2632.45,2633.97,2.21,B,left,0.78,11,0.62,14,0.76,10,0.6,13,-999,32.0,2,1,3,3.0,-1.0,-3.0,-1.0,0.0,-1.0,110
3,2,2310.83,56,2636.52,2638.03,2.22,A,left,0.75,12,0.65,14,0.85,8,0.55,19,-999,2.0,1,3,2,0.0,0.0,0.0,-1.0,0.0,-1.0,0
3,2,2310.83,57,2640.58,2642.1,2.32,A,left,0.75,11,0.65,15,0.73,10,0.63,14,-999,31.0,1,2,3,0.0,-1.0,0.0,0.0,3.0,-1.0,110
3,2,2310.83,58,2644.77,2646.28,2.88,C,left,0.29,34,0.42,23,0.72,13,-999.0,-999,-999,99.0,2,3,1,0.0,0.0,0.0,0.0,0.0,0.0,111
3,2,2310.83,59,2649.5,2651.01,2.3,C,right,0.75,12,0.62,15,0.88,8,0.58,19,-999,1.0,2,1,3,0.0,0.0,-3.0,0.0,3.0,-1.0,101
3,2,2310.83,60,2653.65,2655.16,3.27,A,right,0.24,41,0.37,27,0.76,13,-999.0,-999,-999,99.0,3,2,1,0.0,0.0,0.0,0.0,0.0,0.0,100
3,2,2310.83,61,2658.76,2660.28,2.54,C,right,0.78,12,0.65,14,0.82,9,0.52,20,-999,1.0,1,2,3,3.0,0.0,0.0,-1.0,-3.0,0.0,111
3,2,2310.83,62,2663.16,2664.68,2.23,C,right,0.75,12,0.65,15,0.82,8,0.52,19,-999,1.0,1,2,3,0.0,0.0,0.0,0.0,-3.0,-1.0,1
3,2,2310.83,63,2667.24,2668.76,2.61,C,left,0.75,11,0.62,15,0.88,9,0.58,20,-999,1.0,3,2,1,0.0,-1.0,-3.0,0.0,3.0,0.0,0
3,2,2310.83,64,2671.71,2673.22,2.07,B,right,0.75,12,0.65,15,0.73,11,0.63,14,-999,31.0,2,3,1,0.0,0.0,0.0,0.0,0.0,0.0,10
3,2,2310.83,65,2675.64,2677.16,2.19,A,right,0.75,11,0.65,14,0.73,10,0.63,13,-999,32.0,3,1,2,0.0,-1.0,0.0,-1.0,3.0,0.0,111
3,2,2310.83,66,2679.69,2681.2,3.12,B,mid,0.72,12,0.68,14,0.88,9,0.58,20,-999,2.0,3,2,1,-3.0,0.0,3.0,-1.0,3.0,0.0,110
3,2,2310.83,67,2684.67,2686.19,3.43,C,right,0.31,32,0.38,26,0.85,11,-999.0,-999,-999,99.0,1,2,3,0.0,0.0,0.0,0.0,0.0,0.0,100
3,2,2310.83,68,2689.95,2691.47,2.01,A,left,0.72,11,0.65,15,0.85,9,0.55,20,-999,2.0,1,2,3,-3.0,-1.0,0.0,0.0,0.0,0.0,0
3,2,2310.83,69,2693.82,2695.33,2.46,A,left,0.78,12,0.68,15,0.76,11,0.66,14,-999,31.0,1,2,3,3.0,0.0,3.0,0.0,0.0,0.0,10
3,2,2310.83,70,2698.13,2699.65,2.17,A,right,0.72,12,0.62,14,0.85,9,0.55,20,-999,2.0,3,1,2,-3.0,0.0,-3.0,-1.0,0.0,0.0,0
3,2,2310.83,71,2702.16,2703.68,4.35,A,mid,0.78,12,0.62,15,0.76,11,0.6,14,-999,32.0,2,3,1,3.0,0.0,-3.0,0.0,3.0,0.0,110
3,2,2310.83,72,2708.36,2709.88,2.45,C,left,0.75,12,0.65,15,0.85,9,0.55,20,-999,1.0,3,2,1,0.0,0.0,0.0,0.0,0.0,0.0,10
3,2,2310.83,73,2712.68,2714.19,2.8,B,mid,0.75,11,0.68,14,0.73,10,0.66,13,-999,32.0,3,2,1,0.0,-1.0,3.0,-1.0,0.0,0.0,110
3,2,2310.83,74,2717.34,2718.86,2.6,C,mid,0.72,11,0.65,14,0.7,10,0.63,13,-999,31.0,3,1,2,-3.0,-1.0,0.0,-1.0,3.0,-1.0,10
3,2,2310.83,75,2721.79,2723.31,2.81,C,right,0.78,11,0.68,15,0.88,9,0.58,20,-999,1.0,2,1,3,3.0,-1.0,3.0,0.0,3.0,0.0,1
3,Estimation3,2774.98,E1,2775.06,2776.57,2.61,A,right,0.75,11,0.65,15,0.85,-999,0.55,20,3,,3,2,1,,,,,,,110
3,Estimation3,2774.98,E2,2779.57,2781.09,3.12,B,right,0.75,8,0.65,15,0.85,-999,0.55,20,1,2.0,1,3,2,,,,,,,110
3,Estimation3,2774.98,E3,2784.54,2786.05,1.53,A,right,0.75,8,0.65,15,0.85,-999,0.55,28,3,,3,2,1,,,,,,,110
3,Estimation3,2774.98,E4,2787.92,2789.44,2.75,C,left,0.75,6,0.65,15,0.85,-999,0.55,28,1,2.0,3,2,1,,,,,,,11
3,Estimation3,2774.98,E5,2792.52,2794.04,3.63,B,right,0.75,6,0.65,15,0.85,-999,0.55,24,3,,1,3,2,,,,,,,111
3,Estimation3,2774.98,E6,2798.0,2799.52,11.46,B,left,0.75,7,0.65,15,0.85,-999,0.55,24,1,2.0,3,1,2,,,,,,,100
3,Estimation3,2774.98,E7,2811.31,2812.83,38.63,A,right,0.75,7,0.65,15,0.85,-999,0.55,26,3,,3,2,1,,,,,,,11
3,Estimation3,2774.98,E8,2851.8,2853.32,2.6,C,right,0.75,7,0.65,15,0.85,4,0.55,26,1,2.0,1,2,3,,,,,,,110
3,Estimation3,2774.98,E9,2856.25,2857.77,2.57,A,left,0.75,7,0.65,15,0.85,4,0.55,25,2,1.0,1,2,3,,,,,,,0
3,Estimation3,2774.98,E10,2860.66,2862.18,28.75,C,left,0.75,7,0.65,15,0.85,5,0.55,25,1,2.0,3,2,1,,,,,,,111
3,Estimation3,2774.98,E11,2891.27,2892.8,2.1,A,right,0.75,7,0.65,15,0.85,5,0.55,25,2,1.0,3,1,2,,,,,,,101
3,3,2900.35,1,2900.42,2901.93,3.37,C,left,0.16,62,0.46,21,0.87,11,-999.0,-999,-999,99.0,3,2,1,0.0,0.0,0.0,0.0,0.0,0.0,0
3,3,2900.35,2,2905.65,2907.17,4.12,B,right,0.75,6,0.65,15,0.73,5,0.63,14,-999,31.0,1,3,2,0.0,-1.0,0.0,0.0,3.0,-1.0,100
3,3,2900.35,3,2911.61,2913.13,4.27,B,right,0.78,7,0.65,15,0.76,6,0.63,14,-999,32.0,1,3,2,3.0,0.0,0.0,0.0,-3.0,-1.0,100
3,3,2900.35,4,2917.75,2919.26,4.35,A,right,0.75,7,0.65,14,0.73,6,0.63,13,-999,31.0,3,1,2,0.0,0.0,0.0,-1.0,0.0,0.0,100
3,3,2900.35,5,2923.94,2925.46,2.32,A,mid,0.75,6,0.65,14,0.73,5,0.63,13,-999,32.0,2,1,3,0.0,-1.0,0.0,-1.0,3.0,0.0,110
3,3,2900.35,6,2928.13,2929.64,4.5,B,mid,0.78,6,0.65,15,0.76,5,0.63,14,-999,32.0,3,2,1,3.0,-1.0,0.0,0.0,-3.0,-1.0,111
3,3,2900.35,7,2934.49,2936.01,2.09,B,right,0.72,6,0.68,14,0.7,5,0.66,13,-999,31.0,2,3,1,-3.0,-1.0,3.0,-1.0,-3.0,0.0,111
3,3,2900.35,8,2938.44,2939.96,3.63,C,right,0.28,35,0.67,14,0.78,12,-999.0,-999,-999,99.0,2,1,3,0.0,0.0,0.0,0.0,0.0,0.0,111
3,3,2900.35,9,2943.92,2945.44,2.33,C,left,0.29,34,0.42,23,0.72,13,-999.0,-999,-999,99.0,2,3,1,0.0,0.0,0.0,0.0,0.0,0.0,111
3,3,2900.35,10,2948.1,2949.62,3.98,B,mid,0.75,7,0.65,15,0.73,6,0.63,14,-999,31.0,1,2,3,0.0,0.0,0.0,0.0,0.0,-1.0,11
3,3,2900.35,11,2953.93,2955.45,4.06,B,left,0.72,7,0.62,14,0.7,6,0.6,13,-999,32.0,3,1,2,-3.0,0.0,-3.0,-1.0,0.0,0.0,111
3,3,2900.35,12,2959.85,2961.37,4.29,C,mid,0.19,52,0.56,17,0.8,12,-999.0,-999,-999,99.0,1,3,2,0.0,0.0,0.0,0.0,0.0,0.0,1
3,3,2900.35,13,2966.0,2967.51,4.74,B,left,0.78,6,0.68,14,0.76,5,0.66,13,-999,32.0,3,1,2,3.0,-1.0,3.0,-1.0,3.0,-1.0,10
3,3,2900.35,14,2972.6,2974.11,6.52,B,mid,0.75,6,0.62,15,0.88,4,0.58,24,-999,2.0,1,2,3,0.0,-1.0,-3.0,0.0,3.0,-1.0,11
3,3,2900.35,15,2980.96,2982.48,4.45,B,right,0.78,7,0.62,14,0.85,4,0.55,24,-999,1.0,1,3,2,3.0,0.0,-3.0,-1.0,0.0,-1.0,10
3,3,2900.35,16,2987.26,2988.77,2.53,B,left,0.78,6,0.68,15,0.88,5,0.58,25,-999,1.0,3,1,2,3.0,-1.0,3.0,0.0,3.0,0.0,1
3,3,2900.35,17,2991.64,2993.16,3.46,B,right,0.75,6,0.68,14,0.73,5,0.66,13,-999,32.0,2,3,1,0.0,-1.0,3.0,-1.0,0.0,0.0,101
3,3,2900.35,18,2996.95,2998.47,3.16,B,mid,0.72,6,0.65,14,0.7,5,0.63,13,-999,31.0,3,2,1,-3.0,-1.0,0.0,-1.0,3.0,-1.0,110
3,3,2900.35,19,3001.97,3003.49,1.55,B,mid,0.78,6,0.62,15,0.85,4,0.55,24,-999,1.0,3,2,1,3.0,-1.0,-3.0,0.0,0.0,-1.0,111
3,3,2900.35,20,3005.37,3006.88,4.65,C,right,0.72,7,0.62,14,0.85,5,0.55,25,-999,2.0,1,2,3,-3.0,0.0,-3.0,-1.0,0.0,0.0,1
3,3,2900.35,21,3011.88,3013.4,4.58,B,mid,0.72,6,0.68,14,0.85,5,0.55,25,-999,2.0,1,2,3,-3.0,-1.0,3.0,-1.0,0.0,0.0,0
3,3,2900.35,22,3018.31,3019.83,6.04,C,left,0.72,6,0.62,14,0.88,5,0.58,25,-999,2.0,2,3,1,-3.0,-1.0,-3.0,-1.0,3.0,0.0,111
3,3,2900.35,23,3026.21,3027.73,2.07,B,right,0.78,6,0.62,15,0.76,5,0.6,14,-999,31.0,1,3,2,3.0,-1.0,-3.0,0.0,0.0,0.0,11
3,3,2900.35,24,3030.14,3031.66,5.66,B,left,0.72,7,0.68,15,0.82,5,0.52,25,-999,2.0,2,1,3,-3.0,0.0,3.0,0.0,-3.0,0.0,11
3,3,2900.35,25,3037.66,3039.17,2.58,B,mid,0.75,6,0.68,15,0.88,5,0.58,25,-999,1.0,1,2,3,0.0,-1.0,3.0,0.0,3.0,0.0,110
3,3,2900.35,26,3042.09,3043.61,2.44,B,left,0.72,6,0.65,15,0.7,5,0.63,14,-999,31.0,3,1,2,-3.0,-1.0,0.0,0.0,3.0,-1.0,10
3,3,2900.35,27,3046.39,3047.91,3.48,B,left,0.78,6,0.62,14,0.76,5,0.6,13,-999,32.0,2,1,3,3.0,-1.0,-3.0,-1.0,0.0,-1.0,100
3,3,2900.35,28,3051.72,3053.24,2.19,B,mid,0.75,7,0.65,15,0.85,5,0.55,25,-999,1.0,1,2,3,0.0,0.0,0.0,0.0,0.0,0.0,11
3,3,2900.35,29,3055.77,3057.29,5.11,B,right,0.78,7,0.65,14,0.82,4,0.52,24,-999,2.0,1,3,2,3.0,0.0,0.0,-1.0,-3.0,-1.0,111
3,3,2900.35,30,3062.73,3064.25,1.79,B,right,0.72,6,0.65,15,0.7,5,0.63,14,-999,31.0,2,3,1,-3.0,-1.0,0.0,0.0,3.0,-1.0,11
3,3,2900.35,31,3066.38,3067.9,3.26,B,right,0.72,7,0.62,15,0.7,6,0.6,14,-999,32.0,2,3,1,-3.0,0.0,-3.0,0.0,0.0,0.0,10
3,3,2900.35,32,3071.5,3073.01,2.72,B,mid,0.72,7,0.68,15,0.82,4,0.52,24,-999,1.0,3,2,1,-3.0,0.0,3.0,0.0,-3.0,-1.0,101
3,3,2900.35,33,3076.08,3077.6,7.54,B,mid,0.72,6,0.65,15,0.88,4,0.58,24,-999,2.0,3,2,1,-3.0,-1.0,0.0,0.0,3.0,-1.0,111
3,3,2900.35,34,3085.48,3086.99,4.13,C,mid,0.27,37,0.47,21,0.86,11,-999.0,-999,-999,99.0,3,1,2,0.0,0.0,0.0,0.0,0.0,0.0,10
3,3,2900.35,35,3091.46,3092.97,5.54,B,left,0.78,7,0.65,15,0.76,6,0.63,14,-999,32.0,2,1,3,3.0,0.0,0.0,0.0,0.0,0.0,110
3,3,2900.35,36,3098.86,3100.37,2.17,B,right,0.78,7,0.65,14,0.82,5,0.52,25,-999,1.0,1,3,2,3.0,0.0,0.0,-1.0,-3.0,0.0,0
3,3,2900.35,37,3102.87,3104.39,4.15,C,left,0.72,6,0.68,15,0.88,5,0.58,25,-999,2.0,2,3,1,-3.0,-1.0,3.0,0.0,3.0,0.0,11
3,3,2900.35,38,3113.52,3115.03,3.26,C,right,0.32,31,0.48,20,0.85,11,-999.0,-999,-999,99.0,1,2,3,0.0,0.0,0.0,0.0,0.0,0.0,11
3,3,2900.35,39,3118.63,3120.15,6.7,B,left,0.72,7,0.68,14,0.88,5,0.58,25,-999,2.0,3,1,2,-3.0,0.0,3.0,-1.0,3.0,0.0,110
3,3,2900.35,40,3127.2,3128.71,6.03,B,left,0.72,7,0.65,14,0.7,6,0.63,13,-999,32.0,3,1,2,-3.0,0.0,0.0,-1.0,3.0,0.0,10
3,3,2900.35,41,3135.08,3136.59,2.47,B,right,0.78,7,0.68,15,0.76,6,0.66,14,-999,31.0,1,3,2,3.0,0.0,3.0,0.0,0.0,0.0,1
3,3,2900.35,42,3139.41,3140.93,1.66,B,left,0.75,6,0.62,15,0.88,5,0.58,25,-999,1.0,2,1,3,0.0,-1.0,-3.0,0.0,3.0,0.0,11
3,3,2900.35,43,3142.93,3144.44,2.04,B,right,0.72,7,0.62,15,0.7,6,0.6,14,-999,32.0,1,3,2,-3.0,0.0,-3.0,0.0,3.0,-1.0,110
3,3,2900.35,44,3146.82,3148.34,1.73,B,left,0.75,7,0.65,15,0.82,4,0.52,24,-999,1.0,2,1,3,0.0,0.0,0.0,0.0,-3.0,-1.0,100
3,3,2900.35,45,3150.41,3151.92,1.2,B,right,0.78,6,0.68,15,0.85,4,0.55,24,-999,1.0,2,3,1,3.0,-1.0,3.0,0.0,0.0,-1.0,10
3,3,2900.35,46,3153.46,3154.97,2.81,A,right,0.75,6,0.62,15,0.73,5,0.6,14,-999,32.0,3,2,1,0.0,-1.0,-3.0,0.0,-3.0,0.0,1
3,3,2900.35,47,3158.12,3159.64,8.85,C,right,0.72,7,0.62,14,0.85,5,0.55,25,-999,2.0,2,1,3,-3.0,0.0,-3.0,-1.0,0.0,0.0,10
3,3,2900.35,48,3168.82,3170.33,4.06,B,left,0.72,7,0.68,14,0.7,6,0.66,13,-999,32.0,3,1,2,-3.0,0.0,3.0,-1.0,0.0,-1.0,100
3,3,2900.35,49,3174.73,3176.25,4.99,C,right,0.78,7,0.62,15,0.76,6,0.6,14,-999,32.0,1,2,3,3.0,0.0,-3.0,0.0,3.0,0.0,100
3,3,2900.35,50,3181.58,3183.1,2.01,B,right,0.78,7,0.62,14,0.76,6,0.6,13,-999,31.0,2,3,1,3.0,0.0,-3.0,-1.0,-3.0,0.0,0
3,3,2900.35,51,3185.45,3186.96,4.68,B,mid,0.75,6,0.68,14,0.85,4,0.55,24,-999,2.0,3,2,1,0.0,-1.0,3.0,-1.0,0.0,-1.0,11
3,3,2900.35,52,3191.98,3193.49,6.22,B,right,0.75,7,0.65,14,0.85,4,0.55,24,-999,2.0,1,3,2,0.0,0.0,0.0,-1.0,0.0,-1.0,0
3,3,2900.35,53,3200.06,3201.57,1.73,B,left,0.72,7,0.65,15,0.7,6,0.63,14,-999,31.0,3,1,2,-3.0,0.0,0.0,0.0,-3.0,-1.0,110
3,3,2900.35,54,3203.64,3205.16,2.66,C,mid,0.75,7,0.62,14,0.88,5,0.58,25,-999,2.0,1,3,2,0.0,0.0,-3.0,-1.0,3.0,0.0,100
3,3,2900.35,55,3208.15,3209.67,2.55,C,mid,0.78,7,0.62,14,0.85,5,0.55,25,-999,2.0,1,3,2,3.0,0.0,-3.0,-1.0,0.0,0.0,111
3,3,2900.35,56,3212.55,3214.07,2.54,B,right,0.75,6,0.68,14,0.73,5,0.66,13,-999,31.0,2,3,1,0.0,-1.0,3.0,-1.0,0.0,-1.0,111
3,3,2900.35,57,3216.95,3218.47,4.89,C,left,0.19,52,0.59,16,0.81,12,-999.0,-999,-999,99.0,3,2,1,0.0,0.0,0.0,0.0,0.0,0.0,101
3,3,2900.35,58,3223.7,3225.22,2.93,B,mid,0.72,6,0.65,15,0.85,5,0.55,25,-999,2.0,3,2,1,-3.0,-1.0,0.0,0.0,0.0,0.0,1
3,3,2900.35,59,3228.48,3230.0,6.65,B,left,0.72,7,0.62,15,0.7,6,0.6,14,-999,31.0,3,1,2,-3.0,0.0,-3.0,0.0,0.0,-1.0,100
3,3,2900.35,60,3237.0,3238.51,2.1,B,left,0.75,7,0.62,15,0.88,4,0.58,24,-999,1.0,2,1,3,0.0,0.0,-3.0,0.0,3.0,-1.0,0
3,3,2900.35,61,3240.94,3242.46,1.37,B,right,0.72,7,0.65,15,0.82,4,0.52,24,-999,1.0,2,3,1,-3.0,0.0,0.0,0.0,-3.0,-1.0,111
3,3,2900.35,62,3244.18,3245.69,2.36,B,mid,0.78,6,0.62,15,0.76,5,0.6,14,-999,32.0,3,2,1,3.0,-1.0,-3.0,0.0,-3.0,-1.0,111
3,3,2900.35,63,3248.39,3249.91,4.16,B,left,0.78,6,0.68,15,0.76,5,0.66,14,-999,31.0,2,1,3,3.0,-1.0,3.0,0.0,0.0,0.0,101
3,3,2900.35,64,3254.41,3255.92,3.63,B,right,0.72,7,0.65,15,0.82,4,0.52,24,-999,2.0,2,3,1,-3.0,0.0,0.0,0.0,-3.0,-1.0,101
3,3,2900.35,65,3259.89,3261.4,4.22,C,right,0.32,31,0.6,16,0.78,12,-999.0,-999,-999,99.0,1,2,3,0.0,0.0,0.0,0.0,0.0,0.0,111
3,3,2900.35,66,3265.97,3267.49,4.52,B,left,0.75,7,0.65,15,0.73,6,0.63,14,-999,31.0,3,1,2,0.0,0.0,0.0,0.0,0.0,0.0,100
3,3,2900.35,67,3272.33,3273.85,2.05,B,right,0.72,6,0.62,15,0.7,5,0.6,14,-999,32.0,1,3,2,-3.0,-1.0,-3.0,0.0,-3.0,-1.0,101
3,3,2900.35,68,3276.25,3277.77,2.32,B,right,0.78,7,0.68,15,0.88,4,0.58,24,-999,1.0,1,3,2,3.0,0.0,3.0,0.0,3.0,-1.0,100
3,3,2900.35,69,3280.43,3281.95,1.85,B,right,0.72,7,0.68,15,0.82,4,0.52,24,-999,1.0,2,3,1,-3.0,0.0,3.0,0.0,-3.0,-1.0,101
3,3,2900.35,70,3284.15,3285.66,5.36,B,right,0.31,32,0.38,26,0.85,11,-999.0,-999,-999,99.0,1,3,2,0.0,0.0,0.0,0.0,0.0,0.0,111
3,3,2900.35,71,3291.36,3292.88,4.98,C,left,0.24,41,0.37,27,0.76,13,-999.0,-999,-999,99.0,2,3,1,0.0,0.0,0.0,0.0,0.0,0.0,10
3,3,2900.35,72,3298.19,3299.71,2.06,B,mid,0.78,7,0.65,14,0.82,4,0.52,24,-999,1.0,3,2,1,3.0,0.0,0.0,-1.0,-3.0,-1.0,0
3,3,2900.35,73,3302.11,3303.62,2.58,B,right,0.75,7,0.65,14,0.73,6,0.63,13,-999,31.0,2,3,1,0.0,0.0,0.0,-1.0,-3.0,-1.0,111
3,3,2900.35,74,3306.54,3308.06,2.01,B,right,0.78,7,0.68,15,0.82,5,0.52,25,-999,1.0,2,3,1,3.0,0.0,3.0,0.0,-3.0,0.0,10
3,3,2900.35,75,3310.41,3311.92,4.48,C,mid,0.27,37,0.61,16,0.89,11,-999.0,-999,-999,99.0,1,3,2,0.0,0.0,0.0,0.0,0.0,0.0,11
