subject,block,block_onset,trial,fixation_cross_onset,trial_onset,rt,choice,key,pA,mA,pB,mB,pCA,mCA,pCB,mCB,missing,condition,position_A,position_B,position_C,noise_Ap,noise_Am,noise_Bp,noise_Bm,noise_Cp,noise_Cm,attribute_positions
16,Practice,1445.18,P1,1445.24,1446.75,8.9,B,left,0.78,7,0.62,17,0.85,3,0.55,24,-999,2.0,3,1,2,3.0,-2.0,-3.0,2.0,0.0,-1.0,1
16,Practice,1445.18,P2,1456.0,1457.52,10.59,C,right,0.72,7,0.62,16,0.88,5,0.58,26,-999,2.0,1,2,3,-3.0,-2.0,-3.0,1.0,3.0,1.0,10
16,Practice,1445.18,P3,1468.45,1469.96,9.63,B,right,0.75,11,0.68,13,0.85,4,0.55,25,-999,1.0,2,3,1,0.0,2.0,3.0,-2.0,0.0,0.0,110
16,Practice,1445.18,P4,1479.94,1481.46,12.58,B,left,0.75,9,0.65,15,0.88,5,0.58,26,-999,1.0,3,1,2,0.0,0.0,0.0,0.0,3.0,1.0,100
16,Practice,1445.18,P5,1494.39,1495.9,12.01,A,left,0.72,11,0.62,13,0.85,6,0.55,27,-999,1.0,1,3,2,-3.0,2.0,-3.0,-2.0,0.0,2.0,101
16,Practice,1445.18,P6,1508.25,1509.77,34.34,C,left,0.78,7,0.62,13,0.82,6,0.52,27,-999,2.0,2,3,1,3.0,-2.0,-3.0,-2.0,-3.0,2.0,110
16,Practice,1445.18,P7,1544.46,1545.97,11.54,C,right,0.75,7,0.65,17,0.85,5,0.55,26,-999,2.0,2,1,3,0.0,-2.0,0.0,2.0,0.0,1.0,111
16,Practice,1445.18,P8,1557.87,1559.38,9.47,C,mid,0.72,8,0.68,15,0.82,6,0.52,27,-999,2.0,3,1,2,-3.0,-1.0,3.0,0.0,-3.0,2.0,110
16,Practice,1445.18,P9,1569.2,1570.71,9.64,B,left,0.78,8,0.62,16,0.88,5,0.58,26,-999,1.0,3,1,2,3.0,-1.0,-3.0,1.0,3.0,1.0,1
16,Practice,1445.18,P10,1580.71,1582.23,10.5,B,mid,0.75,10,0.65,16,0.82,2,0.52,23,-999,2.0,1,2,3,0.0,1.0,0.0,1.0,-3.0,-2.0,101
16,Practice,1445.18,P11,1593.07,1594.59,24.91,B,right,0.72,8,0.65,15,0.85,5,0.55,26,-999,2.0,2,3,1,-3.0,-1.0,0.0,0.0,0.0,1.0,0
16,Practice,1445.18,P12,1619.83,1621.35,9.73,B,right,0.72,8,0.68,15,0.85,5,0.55,26,-999,1.0,2,3,1,-3.0,-1.0,3.0,0.0,0.0,1.0,101
16,Practice,1445.18,P13,1631.41,1632.93,13.17,B,left,0.78,11,0.68,16,0.88,5,0.58,26,-999,1.0,2,1,3,3.0,2.0,3.0,1.0,3.0,1.0,111
16,Practice,1445.18,P14,1646.44,1647.96,9.46,A,right,0.72,11,0.62,17,0.82,3,0.52,24,-999,2.0,3,2,1,-3.0,2.0,-3.0,2.0,-3.0,-1.0,0
16,Practice,1445.18,P15,1657.75,1659.27,5.6,C,left,0.78,7,0.68,14,0.88,5,0.58,26,-999,2.0,2,3,1,3.0,-2.0,3.0,-1.0,3.0,1.0,10
16,Practice,1445.18,P16,1665.22,1666.73,7.97,C,right,0.78,7,0.65,13,0.82,2,0.52,23,-999,2.0,2,1,3,3.0,-2.0,0.0,-2.0,-3.0,-2.0,1
16,Practice,1445.18,P17,1675.05,1676.56,7.72,C,left,0.72,10,0.65,13,0.82,5,0.52,26,-999,2.0,3,2,1,-3.0,1.0,0.0,-2.0,-3.0,1.0,110
16,Practice,1445.18,P18,1684.63,1686.14,7.9,C,mid,0.78,7,0.68,13,0.88,2,0.58,23,-999,2.0,3,1,2,3.0,-2.0,3.0,-2.0,3.0,-2.0,10
16,Practice,1445.18,P19,1694.37,1695.89,9.79,A,right,0.78,11,0.62,15,0.85,4,0.55,25,-999,1.0,3,1,2,3.0,2.0,-3.0,0.0,0.0,0.0,110
16,Practice,1445.18,P20,1706.02,1707.54,9.53,B,right,0.72,7,0.65,14,0.88,4,0.58,25,-999,1.0,1,3,2,-3.0,-2.0,0.0,-1.0,3.0,0.0,11
16,Practice,1445.18,P21,1717.4,1718.92,6.7,B,left,0.78,9,0.65,16,0.85,2,0.55,23,-999,1.0,3,1,2,3.0,0.0,0.0,1.0,0.0,-2.0,0
16,Practice,1445.18,P22,1725.96,1727.48,6.11,B,right,0.72,9,0.62,15,0.85,2,0.55,23,-999,1.0,1,3,2,-3.0,0.0,-3.0,0.0,0.0,-2.0,10
16,Practice,1445.18,P23,1733.93,1735.44,8.06,B,left,0.72,7,0.65,13,0.88,3,0.58,24,-999,1.0,3,1,2,-3.0,-2.0,0.0,-2.0,3.0,-1.0,100
16,Practice,1445.18,P24,1743.84,1745.36,8.31,C,right,0.78,7,0.65,13,0.82,5,0.52,26,-999,2.0,2,1,3,3.0,-2.0,0.0,-2.0,-3.0,1.0,10
16,Practice,1445.18,P25,1754.01,1755.52,6.81,B,right,0.78,10,0.68,13,0.85,4,0.55,25,-999,1.0,2,3,1,3.0,1.0,3.0,-2.0,0.0,0.0,111
16,Estimation1,1922.33,E1,1922.4,1923.92,5.44,B,left,0.75,11,0.65,15,0.85,-999,0.55,20,3,,2,1,3,,,,,,,11
16,Estimation1,1922.33,E2,1929.7,1931.22,5.16,C,mid,0.75,12,0.65,15,0.85,-999,0.55,20,1,2.0,1,3,2,,,,,,,101
16,Estimation1,1922.33,E3,1936.71,1938.23,8.93,A,right,0.75,12,0.65,15,0.85,-999,0.55,18,3,,3,1,2,,,,,,,100
16,Estimation1,1922.33,E4,1947.51,1949.03,13.37,B,right,0.75,12,0.65,15,0.85,6,0.55,18,1,2.0,2,3,1,,,,,,,101
16,Estimation1,1922.33,E5,1962.74,1964.26,5.26,A,left,0.75,12,0.65,15,0.85,6,0.55,19,2,1.0,1,2,3,,,,,,,1
16,Estimation1,1922.33,E6,1969.85,1971.37,11.07,B,left,0.75,12,0.65,15,0.85,8,0.55,19,1,2.0,2,1,3,,,,,,,101
16,Estimation1,1922.33,E7,1982.78,1984.3,4.38,A,left,0.75,12,0.65,15,0.85,8,0.55,20,2,1.0,1,2,3,,,,,,,100
16,Estimation1,1922.33,E8,1989.01,1990.53,10.92,B,right,0.75,12,0.65,15,0.85,9,0.55,20,1,2.0,2,3,1,,,,,,,100
16,Estimation1,1922.33,E9,2001.79,2003.31,9.9,A,right,0.75,12,0.65,15,0.85,9,0.55,20,2,1.0,3,2,1,,,,,,,100
16,Estimation1,1922.33,E10,2013.56,2015.07,16.95,C,mid,0.75,12,0.65,15,0.85,10,0.55,20,1,2.0,1,3,2,,,,,,,0
16,Estimation1,1922.33,E11,2032.37,2033.88,9.59,C,right,0.75,12,0.65,15,0.85,10,0.55,20,2,1.0,1,2,3,,,,,,,101
16,1,2047.54,1,2047.61,2049.13,11.76,C,mid,0.78,12,0.62,14,0.85,10,0.55,20,-999,2.0,3,1,2,3.0,0.0,-3.0,-1.0,0.0,0.0,110
16,1,2047.54,2,2061.22,2062.74,20.64,A,right,0.28,35,0.67,14,0.78,12,-999.0,-999,-999,99.0,3,2,1,0.0,0.0,0.0,0.0,0.0,0.0,101
16,1,2047.54,3,2083.72,2085.23,14.43,B,right,0.78,11,0.68,15,0.76,10,0.66,14,-999,31.0,1,3,2,3.0,-1.0,3.0,0.0,0.0,0.0,0
16,1,2047.54,4,2100.01,2101.53,16.83,C,mid,0.75,11,0.68,14,0.85,9,0.55,19,-999,2.0,1,3,2,0.0,-1.0,3.0,-1.0,0.0,-1.0,0
16,1,2047.54,5,2118.69,2120.21,22.13,B,left,0.72,12,0.68,14,0.7,11,0.66,13,-999,32.0,2,1,3,-3.0,0.0,3.0,-1.0,0.0,-1.0,111
16,1,2047.54,6,2142.68,2144.2,6.09,A,left,0.72,12,0.62,15,0.7,11,0.6,14,-999,32.0,1,3,2,-3.0,0.0,-3.0,0.0,3.0,-1.0,110
16,1,2047.54,7,2150.63,2152.15,9.48,C,mid,0.78,12,0.65,14,0.82,10,0.52,20,-999,1.0,1,3,2,3.0,0.0,0.0,-1.0,-3.0,0.0,111
16,1,2047.54,8,2161.96,2163.48,9.22,C,left,0.72,12,0.62,14,0.85,10,0.55,20,-999,2.0,3,2,1,-3.0,0.0,-3.0,-1.0,0.0,0.0,111
16,1,2047.54,9,2173.02,2174.54,5.03,A,left,0.72,12,0.62,14,0.7,11,0.6,13,-999,32.0,1,3,2,-3.0,0.0,-3.0,-1.0,0.0,0.0,101
16,1,2047.54,10,2179.9,2181.42,12.89,C,right,0.75,12,0.62,15,0.88,9,0.58,19,-999,1.0,1,2,3,0.0,0.0,-3.0,0.0,3.0,-1.0,101
16,1,2047.54,11,2194.65,2196.17,30.69,C,left,0.27,37,0.61,16,0.89,11,-999.0,-999,-999,99.0,3,2,1,0.0,0.0,0.0,0.0,0.0,0.0,1
16,1,2047.54,12,2227.19,2228.71,11.39,C,mid,0.75,11,0.62,15,0.88,10,0.58,20,-999,1.0,1,3,2,0.0,-1.0,-3.0,0.0,3.0,0.0,100
16,1,2047.54,13,2240.43,2241.95,9.2,A,mid,0.72,11,0.62,15,0.7,10,0.6,14,-999,32.0,2,3,1,-3.0,-1.0,-3.0,0.0,-3.0,-1.0,101
16,1,2047.54,14,2251.48,2253.0,12.52,C,left,0.75,12,0.62,14,0.88,10,0.58,20,-999,2.0,3,2,1,0.0,0.0,-3.0,-1.0,3.0,0.0,111
16,1,2047.54,15,2265.86,2267.38,4.2,A,left,0.78,11,0.68,15,0.85,9,0.55,19,-999,1.0,1,3,2,3.0,-1.0,3.0,0.0,0.0,-1.0,101
16,1,2047.54,16,2271.92,2273.44,11.17,A,right,0.78,12,0.68,15,0.88,9,0.58,19,-999,1.0,3,1,2,3.0,0.0,3.0,0.0,3.0,-1.0,0
16,1,2047.54,17,2284.95,2286.47,16.07,B,left,0.72,12,0.65,15,0.7,11,0.63,14,-999,31.0,3,1,2,-3.0,0.0,0.0,0.0,-3.0,-1.0,0
16,1,2047.54,18,2302.88,2304.4,11.11,B,left,0.75,11,0.68,14,0.73,10,0.66,13,-999,31.0,3,1,2,0.0,-1.0,3.0,-1.0,0.0,-1.0,111
16,1,2047.54,19,2315.84,2317.36,17.24,C,mid,0.78,11,0.68,15,0.88,10,0.58,20,-999,1.0,3,1,2,3.0,-1.0,3.0,0.0,3.0,0.0,10
16,1,2047.54,20,2334.94,2336.45,13.12,B,mid,0.72,12,0.62,15,0.7,11,0.6,14,-999,32.0,3,2,1,-3.0,0.0,-3.0,0.0,0.0,0.0,110
16,1,2047.54,21,2349.92,2351.43,16.37,A,mid,0.78,12,0.68,15,0.82,10,0.52,20,-999,1.0,2,1,3,3.0,0.0,3.0,0.0,-3.0,0.0,0
16,1,2047.54,22,2368.14,2369.66,36.01,C,right,0.72,12,0.68,15,0.82,10,0.52,20,-999,2.0,2,1,3,-3.0,0.0,3.0,0.0,-3.0,0.0,11
16,1,2047.54,23,2406.02,2407.53,8.11,C,right,0.72,11,0.65,15,0.88,9,0.58,19,-999,2.0,2,1,3,-3.0,-1.0,0.0,0.0,3.0,-1.0,101
16,1,2047.54,24,2415.98,2417.5,10.16,C,right,0.78,12,0.62,14,0.85,9,0.55,19,-999,1.0,2,1,3,3.0,0.0,-3.0,-1.0,0.0,-1.0,1
16,1,2047.54,25,2427.99,2429.51,6.21,C,left,0.72,11,0.68,15,0.88,10,0.58,20,-999,2.0,2,3,1,-3.0,-1.0,3.0,0.0,3.0,0.0,11
16,1,2047.54,26,2436.06,2437.57,15.51,A,left,0.75,11,0.62,15,0.73,10,0.6,14,-999,32.0,1,2,3,0.0,-1.0,-3.0,0.0,-3.0,0.0,100
16,1,2047.54,27,2453.42,2454.93,17.93,B,right,0.75,11,0.68,14,0.73,10,0.66,13,-999,32.0,1,3,2,0.0,-1.0,3.0,-1.0,0.0,0.0,11
16,1,2047.54,28,2473.21,2474.73,31.97,B,mid,0.75,12,0.65,14,0.73,11,0.63,13,-999,31.0,1,2,3,0.0,0.0,0.0,-1.0,0.0,0.0,101
16,1,2047.54,29,2507.03,2508.55,16.73,B,mid,0.72,11,0.65,15,0.7,10,0.63,14,-999,31.0,1,2,3,-3.0,-1.0,0.0,0.0,3.0,-1.0,111
16,1,2047.54,30,2525.63,2527.14,6.34,C,right,0.75,12,0.65,15,0.85,10,0.55,20,-999,1.0,2,1,3,0.0,0.0,0.0,0.0,0.0,0.0,101
16,1,2047.54,31,2533.83,2535.34,14.64,C,left,0.75,11,0.62,15,0.88,9,0.58,19,-999,2.0,2,3,1,0.0,-1.0,-3.0,0.0,3.0,-1.0,100
16,1,2047.54,32,2550.32,2551.84,8.88,C,right,0.72,12,0.68,15,0.82,9,0.52,19,-999,1.0,2,1,3,-3.0,0.0,3.0,0.0,-3.0,-1.0,0
16,1,2047.54,33,2561.07,2562.58,6.52,C,left,0.78,12,0.65,14,0.82,9,0.52,19,-999,1.0,2,3,1,3.0,0.0,0.0,-1.0,-3.0,-1.0,110
16,1,2047.54,34,2569.45,2570.96,14.21,C,right,0.72,12,0.65,15,0.82,9,0.52,19,-999,1.0,1,2,3,-3.0,0.0,0.0,0.0,-3.0,-1.0,10
16,1,2047.54,35,2585.51,2587.03,11.99,B,right,0.72,11,0.65,15,0.7,10,0.63,14,-999,31.0,1,3,2,-3.0,-1.0,0.0,0.0,3.0,-1.0,100
16,1,2047.54,36,2599.35,2600.87,38.44,A,right,0.27,37,0.47,21,0.86,11,-999.0,-999,-999,99.0,3,1,2,0.0,0.0,0.0,0.0,0.0,0.0,110
16,1,2047.54,37,2639.64,2641.16,12.2,C,left,0.72,11,0.62,14,0.88,10,0.58,20,-999,2.0,2,3,1,-3.0,-1.0,-3.0,-1.0,3.0,0.0,0
16,1,2047.54,38,2832.8,2834.31,10.26,A,mid,0.75,12,0.65,15,0.73,11,0.63,14,-999,31.0,2,1,3,0.0,0.0,0.0,0.0,0.0,-1.0,111
16,1,2047.54,39,2844.91,2846.43,16.68,B,mid,0.78,11,0.65,15,0.76,10,0.63,14,-999,32.0,1,2,3,3.0,-1.0,0.0,0.0,-3.0,-1.0,100
16,1,2047.54,40,2863.44,2864.95,33.56,C,right,0.29,34,0.42,23,0.72,13,-999.0,-999,-999,99.0,1,2,3,0.0,0.0,0.0,0.0,0.0,0.0,110
16,1,2047.54,41,2898.86,2900.38,13.8,C,right,0.72,12,0.68,14,0.88,10,0.58,20,-999,2.0,1,2,3,-3.0,0.0,3.0,-1.0,3.0,0.0,11
16,1,2047.54,42,2914.52,2916.04,8.07,B,left,0.72,12,0.62,15,0.7,11,0.6,14,-999,31.0,3,1,2,-3.0,0.0,-3.0,0.0,0.0,-1.0,110
16,1,2047.54,43,2924.47,2925.98,20.97,A,mid,0.75,12,0.65,14,0.73,11,0.63,13,-999,31.0,2,1,3,0.0,0.0,0.0,-1.0,-3.0,-1.0,110
16,1,2047.54,44,2947.29,2948.81,21.91,A,left,0.24,41,0.37,27,0.76,13,-999.0,-999,-999,99.0,1,3,2,0.0,0.0,0.0,0.0,0.0,0.0,1
16,1,2047.54,45,2971.05,2972.57,17.21,B,mid,0.72,11,0.65,15,0.85,10,0.55,20,-999,2.0,1,2,3,-3.0,-1.0,0.0,0.0,0.0,0.0,110
16,1,2047.54,46,2990.11,2991.63,32.08,B,left,0.75,11,0.68,15,0.88,10,0.58,20,-999,1.0,3,1,2,0.0,-1.0,3.0,0.0,3.0,0.0,10
16,1,2047.54,47,3024.05,3025.57,10.01,C,left,0.72,12,0.62,14,0.85,10,0.55,20,-999,2.0,3,2,1,-3.0,0.0,-3.0,-1.0,0.0,0.0,1
16,1,2047.54,48,3035.92,3037.43,11.25,A,mid,0.32,31,0.48,20,0.85,11,-999.0,-999,-999,99.0,2,1,3,0.0,0.0,0.0,0.0,0.0,0.0,10
16,1,2047.54,49,3049.01,3050.53,24.53,A,mid,0.16,62,0.46,21,0.87,11,-999.0,-999,-999,99.0,2,3,1,0.0,0.0,0.0,0.0,0.0,0.0,11
16,1,2047.54,50,3075.39,3076.9,16.34,B,mid,0.78,11,0.62,15,0.76,10,0.6,14,-999,31.0,1,2,3,3.0,-1.0,-3.0,0.0,0.0,0.0,10
16,1,2047.54,51,3093.58,3095.1,8.25,B,mid,0.75,11,0.65,14,0.73,10,0.63,13,-999,32.0,1,2,3,0.0,-1.0,0.0,-1.0,3.0,0.0,11
16,1,2047.54,52,3103.69,3105.21,10.86,B,mid,0.78,12,0.68,15,0.76,11,0.66,14,-999,31.0,3,2,1,3.0,0.0,3.0,0.0,0.0,0.0,0
16,1,2047.54,53,3116.41,3117.92,7.67,A,mid,0.72,12,0.65,14,0.7,11,0.63,13,-999,32.0,2,1,3,-3.0,0.0,0.0,-1.0,3.0,0.0,1
16,1,2047.54,54,3125.94,3127.45,19.03,A,mid,0.78,12,0.65,15,0.76,11,0.63,14,-999,32.0,2,1,3,3.0,0.0,0.0,0.0,0.0,0.0,10
16,1,2047.54,55,3146.83,3148.35,25.79,C,right,0.75,12,0.65,14,0.85,9,0.55,19,-999,2.0,1,2,3,0.0,0.0,0.0,-1.0,0.0,-1.0,0
16,1,2047.54,56,3174.47,3175.99,30.57,A,mid,0.78,12,0.65,15,0.76,11,0.63,14,-999,32.0,2,1,3,3.0,0.0,0.0,0.0,-3.0,-1.0,100
16,1,2047.54,57,3206.9,3208.41,7.79,A,left,0.78,12,0.62,15,0.76,11,0.6,14,-999,32.0,1,2,3,3.0,0.0,-3.0,0.0,3.0,0.0,0
16,1,2047.54,58,3216.54,3218.06,17.78,C,left,0.78,12,0.65,14,0.82,9,0.52,19,-999,2.0,2,3,1,3.0,0.0,0.0,-1.0,-3.0,-1.0,10
16,1,2047.54,59,3236.17,3237.69,19.87,A,left,0.31,32,0.38,26,0.85,11,-999.0,-999,-999,99.0,1,2,3,0.0,0.0,0.0,0.0,0.0,0.0,101
16,1,2047.54,60,3257.9,3259.41,5.62,A,left,0.78,11,0.68,14,0.76,10,0.66,13,-999,32.0,1,3,2,3.0,-1.0,3.0,-1.0,3.0,-1.0,111
16,1,2047.54,61,3265.38,3266.89,8.43,B,left,0.72,11,0.68,14,0.7,10,0.66,13,-999,31.0,2,1,3,-3.0,-1.0,3.0,-1.0,-3.0,0.0,100
16,1,2047.54,62,3275.66,3277.17,26.34,C,mid,0.72,12,0.65,15,0.82,9,0.52,19,-999,2.0,3,1,2,-3.0,0.0,0.0,0.0,-3.0,-1.0,110
16,1,2047.54,63,3303.85,3305.36,17.6,A,right,0.32,31,0.6,16,0.78,12,-999.0,-999,-999,99.0,3,2,1,0.0,0.0,0.0,0.0,0.0,0.0,1
16,1,2047.54,64,3323.31,3324.82,9.85,A,right,0.19,52,0.59,16,0.81,12,-999.0,-999,-999,99.0,3,1,2,0.0,0.0,0.0,0.0,0.0,0.0,111
16,1,2047.54,65,3335.02,3336.54,19.56,B,mid,0.75,11,0.65,15,0.73,10,0.63,14,-999,31.0,3,2,1,0.0,-1.0,0.0,0.0,3.0,-1.0,0
16,1,2047.54,66,3356.43,3357.95,19.15,B,mid,0.78,11,0.62,15,0.76,10,0.6,14,-999,32.0,1,2,3,3.0,-1.0,-3.0,0.0,-3.0,-1.0,0
16,1,2047.54,67,3377.44,3378.96,19.41,A,mid,0.78,11,0.62,14,0.76,10,0.6,13,-999,32.0,2,3,1,3.0,-1.0,-3.0,-1.0,0.0,-1.0,110
16,1,2047.54,68,3398.7,3400.22,26.75,B,left,0.19,52,0.56,17,0.8,12,-999.0,-999,-999,99.0,2,1,3,0.0,0.0,0.0,0.0,0.0,0.0,101
16,1,2047.54,69,3427.31,3428.83,9.63,B,left,0.72,12,0.68,15,0.82,9,0.52,19,-999,1.0,2,1,3,-3.0,0.0,3.0,0.0,-3.0,-1.0,111
16,1,2047.54,70,3438.79,3440.3,8.48,A,left,0.75,12,0.65,15,0.73,11,0.63,14,-999,31.0,1,3,2,0.0,0.0,0.0,0.0,0.0,0.0,10
16,1,2047.54,71,3449.12,3450.63,24.3,B,mid,0.78,11,0.62,15,0.85,9,0.55,19,-999,1.0,1,2,3,3.0,-1.0,-3.0,0.0,0.0,-1.0,111
16,1,2047.54,72,3475.28,3476.79,9.12,C,mid,0.72,11,0.68,14,0.85,10,0.55,20,-999,2.0,3,1,2,-3.0,-1.0,3.0,-1.0,0.0,0.0,111
16,1,2047.54,73,3486.26,3487.77,6.33,A,right,0.78,12,0.62,14,0.76,11,0.6,13,-999,31.0,3,2,1,3.0,0.0,-3.0,-1.0,-3.0,0.0,100
16,1,2047.54,74,3494.44,3495.95,6.89,C,mid,0.75,12,0.65,15,0.82,9,0.52,19,-999,1.0,3,1,2,0.0,0.0,0.0,0.0,-3.0,-1.0,0
16,1,2047.54,75,3503.18,3504.7,9.65,B,right,0.72,11,0.65,14,0.7,10,0.63,13,-999,31.0,1,3,2,-3.0,-1.0,0.0,-1.0,3.0,-1.0,110
16,Estimation2,3700.9,E1,3700.96,3702.47,3.17,B,left,0.75,11,0.65,15,0.85,-999,0.55,20,3,,3,1,2,,,,,,,110
16,Estimation2,3700.9,E2,3705.97,3707.49,11.68,C,right,0.75,12,0.65,15,0.85,-999,0.55,20,1,2.0,2,1,3,,,,,,,110
16,Estimation2,3700.9,E3,3719.52,3721.03,8.3,A,right,0.75,12,0.65,15,0.85,-999,0.55,18,3,,3,2,1,,,,,,,110
16,Estimation2,3700.9,E4,3729.68,3731.2,9.59,B,mid,0.75,12,0.65,15,0.85,6,0.55,18,1,2.0,3,2,1,,,,,,,100
16,Estimation2,3700.9,E5,3741.13,3742.64,3.86,A,mid,0.75,12,0.65,15,0.85,6,0.55,19,2,1.0,2,1,3,,,,,,,110
16,Estimation2,3700.9,E6,3746.84,3748.36,3.13,B,mid,0.75,12,0.65,15,0.85,8,0.55,19,1,2.0,1,2,3,,,,,,,0
16,Estimation2,3700.9,E7,3751.82,3753.34,4.88,A,right,0.75,12,0.65,15,0.85,8,0.55,20,2,1.0,3,1,2,,,,,,,1
16,Estimation2,3700.9,E8,3758.55,3760.07,6.09,C,mid,0.75,12,0.65,15,0.85,9,0.55,20,1,2.0,1,3,2,,,,,,,1
16,Estimation2,3700.9,E9,3766.5,3768.02,22.68,A,left,0.75,12,0.65,15,0.85,9,0.55,20,2,1.0,1,3,2,,,,,,,0
16,Estimation2,3700.9,E10,3791.04,3792.56,6.15,C,right,0.75,12,0.65,15,0.85,10,0.55,20,1,2.0,1,2,3,,,,,,,0
16,Estimation2,3700.9,E11,3799.06,3800.57,15.43,A,right,0.75,12,0.65,15,0.85,10,0.55,20,2,1.0,3,1,2,,,,,,,101
16,2,3820.58,1,3820.65,3822.17,16.02,A,left,0.28,35,0.67,14,0.78,12,-999.0,-999,-999,99.0,1,2,3,0.0,0.0,0.0,0.0,0.0,0.0,111
16,2,3820.58,2,3838.53,3840.04,12.69,A,right,0.72,12,0.62,14,0.7,11,0.6,13,-999,32.0,3,2,1,-3.0,0.0,-3.0,-1.0,0.0,0.0,111
16,2,3820.58,3,3853.07,3854.59,9.63,B,mid,0.78,11,0.68,14,0.76,10,0.66,13,-999,32.0,3,2,1,3.0,-1.0,3.0,-1.0,3.0,-1.0,110
16,2,3820.58,4,3864.55,3866.07,16.03,B,right,0.72,12,0.68,15,0.82,9,0.52,19,-999,1.0,2,3,1,-3.0,0.0,3.0,0.0,-3.0,-1.0,110
16,2,3820.58,5,3882.45,3883.96,9.7,C,mid,0.72,12,0.62,14,0.85,10,0.55,20,-999,2.0,3,1,2,-3.0,0.0,-3.0,-1.0,0.0,0.0,11
16,2,3820.58,6,3893.99,3895.51,6.91,C,right,0.72,11,0.62,14,0.88,10,0.58,20,-999,2.0,1,2,3,-3.0,-1.0,-3.0,-1.0,3.0,0.0,101
16,2,3820.58,7,3902.76,3904.27,8.33,B,right,0.72,11,0.62,15,0.7,10,0.6,14,-999,32.0,1,3,2,-3.0,-1.0,-3.0,0.0,-3.0,-1.0,111
16,2,3820.58,8,3912.94,3914.45,21.73,B,left,0.24,41,0.37,27,0.76,13,-999.0,-999,-999,99.0,2,1,3,0.0,0.0,0.0,0.0,0.0,0.0,11
16,2,3820.58,9,3936.51,3938.03,11.82,B,left,0.72,12,0.65,15,0.82,9,0.52,19,-999,2.0,2,1,3,-3.0,0.0,0.0,0.0,-3.0,-1.0,100
16,2,3820.58,10,3950.19,3951.71,12.31,B,mid,0.75,11,0.68,14,0.73,10,0.66,13,-999,31.0,3,2,1,0.0,-1.0,3.0,-1.0,0.0,-1.0,0
16,2,3820.58,11,3964.36,3965.87,14.07,A,mid,0.32,31,0.48,20,0.85,11,-999.0,-999,-999,99.0,2,3,1,0.0,0.0,0.0,0.0,0.0,0.0,111
16,2,3820.58,12,3980.28,3981.8,12.09,B,mid,0.72,11,0.65,14,0.7,10,0.63,13,-999,31.0,3,2,1,-3.0,-1.0,0.0,-1.0,3.0,-1.0,0
16,2,3820.58,13,3994.23,3995.75,16.35,B,left,0.72,11,0.65,15,0.7,10,0.63,14,-999,31.0,2,1,3,-3.0,-1.0,0.0,0.0,3.0,-1.0,1
16,2,3820.58,14,4012.44,4013.96,12.35,B,mid,0.75,11,0.62,15,0.73,10,0.6,14,-999,32.0,3,2,1,0.0,-1.0,-3.0,0.0,-3.0,0.0,10
16,2,3820.58,15,4026.64,4028.15,13.7,A,right,0.19,52,0.59,16,0.81,12,-999.0,-999,-999,99.0,3,1,2,0.0,0.0,0.0,0.0,0.0,0.0,110
16,2,3820.58,16,4042.2,4043.71,13.14,B,left,0.78,12,0.65,15,0.76,11,0.63,14,-999,32.0,3,1,2,3.0,0.0,0.0,0.0,0.0,0.0,0
16,2,3820.58,17,4057.19,4058.71,18.37,A,mid,0.32,31,0.6,16,0.78,12,-999.0,-999,-999,99.0,2,1,3,0.0,0.0,0.0,0.0,0.0,0.0,110
16,2,3820.58,18,4077.42,4078.94,12.58,A,right,0.27,37,0.61,16,0.89,11,-999.0,-999,-999,99.0,3,1,2,0.0,0.0,0.0,0.0,0.0,0.0,110
16,2,3820.58,19,4091.85,4093.36,20.67,C,mid,0.75,11,0.68,14,0.85,9,0.55,19,-999,2.0,1,3,2,0.0,-1.0,3.0,-1.0,0.0,-1.0,0
16,2,3820.58,20,4114.37,4115.89,6.1,B,mid,0.75,11,0.65,15,0.73,10,0.63,14,-999,31.0,3,2,1,0.0,-1.0,0.0,0.0,3.0,-1.0,1
16,2,3820.58,21,4122.32,4123.84,13.88,C,left,0.75,12,0.62,14,0.88,10,0.58,20,-999,2.0,2,3,1,0.0,0.0,-3.0,-1.0,3.0,0.0,11
16,2,3820.58,22,4138.05,4139.57,15.46,B,right,0.78,12,0.68,15,0.82,10,0.52,20,-999,1.0,1,3,2,3.0,0.0,3.0,0.0,-3.0,0.0,10
16,2,3820.58,23,4155.36,4156.88,9.01,C,left,0.72,11,0.68,15,0.88,10,0.58,20,-999,2.0,3,2,1,-3.0,-1.0,3.0,0.0,3.0,0.0,10
16,2,3820.58,24,4166.22,4167.74,16.34,A,right,0.78,12,0.62,14,0.85,9,0.55,19,-999,1.0,3,1,2,3.0,0.0,-3.0,-1.0,0.0,-1.0,11
16,2,3820.58,25,4184.42,4185.94,4.01,C,left,0.72,11,0.68,14,0.85,10,0.55,20,-999,2.0,2,3,1,-3.0,-1.0,3.0,-1.0,0.0,0.0,101
16,2,3820.58,26,4190.28,4191.8,16.98,A,right,0.75,12,0.65,15,0.73,11,0.63,14,-999,31.0,3,2,1,0.0,0.0,0.0,0.0,0.0,0.0,10
16,2,3820.58,27,4209.13,4210.64,4.58,B,mid,0.72,12,0.65,14,0.7,11,0.63,13,-999,32.0,3,2,1,-3.0,0.0,0.0,-1.0,3.0,0.0,111
16,2,3820.58,28,4215.63,4217.14,9.48,A,right,0.75,12,0.65,14,0.73,11,0.63,13,-999,31.0,3,1,2,0.0,0.0,0.0,-1.0,-3.0,-1.0,10
16,2,3820.58,29,4226.96,4228.47,10.53,C,left,0.78,12,0.62,14,0.85,10,0.55,20,-999,2.0,2,3,1,3.0,0.0,-3.0,-1.0,0.0,0.0,100
16,2,3820.58,30,4239.35,4240.87,21.25,B,mid,0.78,12,0.65,15,0.76,11,0.63,14,-999,32.0,1,2,3,3.0,0.0,0.0,0.0,-3.0,-1.0,11
16,2,3820.58,31,4262.46,4263.98,16.07,A,mid,0.75,12,0.65,15,0.82,9,0.52,19,-999,1.0,2,3,1,0.0,0.0,0.0,0.0,-3.0,-1.0,1
16,2,3820.58,32,4280.39,4281.9,5.01,C,mid,0.75,11,0.68,15,0.88,10,0.58,20,-999,1.0,1,3,2,0.0,-1.0,3.0,0.0,3.0,0.0,0
16,2,3820.58,33,4287.25,4288.77,4.92,C,mid,0.72,12,0.65,15,0.82,9,0.52,19,-999,1.0,3,1,2,-3.0,0.0,0.0,0.0,-3.0,-1.0,100
16,2,3820.58,34,4294.03,4295.55,8.62,C,right,0.72,12,0.62,14,0.85,10,0.55,20,-999,2.0,1,2,3,-3.0,0.0,-3.0,-1.0,0.0,0.0,0
16,2,3820.58,35,4304.51,4306.03,17.14,B,left,0.75,11,0.68,14,0.73,10,0.66,13,-999,32.0,2,1,3,0.0,-1.0,3.0,-1.0,0.0,0.0,10
16,2,3820.58,36,4323.51,4325.02,10.97,C,mid,0.72,11,0.65,15,0.85,10,0.55,20,-999,2.0,1,3,2,-3.0,-1.0,0.0,0.0,0.0,0.0,111
16,2,3820.58,37,4336.34,4337.85,34.74,A,left,0.31,32,0.38,26,0.85,11,-999.0,-999,-999,99.0,1,2,3,0.0,0.0,0.0,0.0,0.0,0.0,10
16,2,3820.58,38,4503.82,4505.33,12.21,B,mid,0.72,12,0.62,15,0.7,11,0.6,14,-999,32.0,3,2,1,-3.0,0.0,-3.0,0.0,3.0,-1.0,100
16,2,3820.58,39,4517.88,4519.4,14.34,B,mid,0.75,12,0.65,15,0.73,11,0.63,14,-999,31.0,1,2,3,0.0,0.0,0.0,0.0,0.0,-1.0,101
16,2,3820.58,40,4534.08,4535.59,9.59,B,right,0.72,11,0.65,15,0.7,10,0.63,14,-999,31.0,1,3,2,-3.0,-1.0,0.0,0.0,3.0,-1.0,11
16,2,3820.58,41,4545.52,4547.04,17.39,B,right,0.75,11,0.65,14,0.73,10,0.63,13,-999,32.0,1,3,2,0.0,-1.0,0.0,-1.0,3.0,0.0,11
16,2,3820.58,42,4564.77,4566.28,5.87,C,mid,0.72,12,0.68,14,0.88,10,0.58,20,-999,2.0,3,1,2,-3.0,0.0,3.0,-1.0,3.0,0.0,111
16,2,3820.58,43,4572.48,4574.0,4.99,B,right,0.72,12,0.68,14,0.7,11,0.66,13,-999,32.0,1,3,2,-3.0,0.0,3.0,-1.0,0.0,-1.0,111
16,2,3820.58,44,4579.33,4580.84,9.98,C,right,0.78,12,0.65,14,0.82,9,0.52,19,-999,2.0,2,1,3,3.0,0.0,0.0,-1.0,-3.0,-1.0,10
16,2,3820.58,45,4591.17,4592.69,17.8,A,left,0.19,52,0.56,17,0.8,12,-999.0,-999,-999,99.0,1,2,3,0.0,0.0,0.0,0.0,0.0,0.0,0
16,2,3820.58,46,4610.83,4612.35,10.19,C,mid,0.72,11,0.65,15,0.88,9,0.58,19,-999,2.0,3,1,2,-3.0,-1.0,0.0,0.0,3.0,-1.0,0
16,2,3820.58,47,4622.88,4624.4,16.34,A,left,0.78,12,0.68,15,0.88,9,0.58,19,-999,1.0,1,2,3,3.0,0.0,3.0,0.0,3.0,-1.0,100
16,2,3820.58,48,4641.07,4642.59,7.55,B,left,0.78,11,0.68,15,0.88,10,0.58,20,-999,1.0,2,1,3,3.0,-1.0,3.0,0.0,3.0,0.0,101
16,2,3820.58,49,4650.47,4651.99,13.49,B,mid,0.72,12,0.62,15,0.7,11,0.6,14,-999,31.0,1,2,3,-3.0,0.0,-3.0,0.0,0.0,-1.0,100
16,2,3820.58,50,4665.82,4667.33,16.98,A,mid,0.78,11,0.65,15,0.76,10,0.63,14,-999,32.0,2,3,1,3.0,-1.0,0.0,0.0,-3.0,-1.0,11
16,2,3820.58,51,4684.66,4686.18,10.34,A,right,0.16,62,0.46,21,0.87,11,-999.0,-999,-999,99.0,3,2,1,0.0,0.0,0.0,0.0,0.0,0.0,11
16,2,3820.58,52,4696.86,4698.37,25.05,C,right,0.75,11,0.62,15,0.88,9,0.58,19,-999,2.0,2,1,3,0.0,-1.0,-3.0,0.0,3.0,-1.0,10
16,2,3820.58,53,4723.76,4725.28,12.72,B,right,0.78,11,0.68,15,0.85,9,0.55,19,-999,1.0,1,3,2,3.0,-1.0,3.0,0.0,0.0,-1.0,10
16,2,3820.58,54,4738.34,4739.86,7.62,A,mid,0.75,12,0.65,14,0.73,11,0.63,13,-999,31.0,2,1,3,0.0,0.0,0.0,-1.0,0.0,0.0,110
16,2,3820.58,55,4747.82,4749.34,17.99,A,left,0.29,34,0.42,23,0.72,13,-999.0,-999,-999,99.0,1,3,2,0.0,0.0,0.0,0.0,0.0,0.0,0
16,2,3820.58,56,4767.67,4769.18,15.66,A,left,0.78,12,0.62,15,0.76,11,0.6,14,-999,32.0,1,2,3,3.0,0.0,-3.0,0.0,3.0,0.0,110
16,2,3820.58,57,4785.18,4786.7,11.52,A,mid,0.78,12,0.65,14,0.82,10,0.52,20,-999,1.0,2,3,1,3.0,0.0,0.0,-1.0,-3.0,0.0,111
16,2,3820.58,58,4798.54,4800.06,13.93,A,mid,0.78,11,0.62,15,0.76,10,0.6,14,-999,31.0,2,1,3,3.0,-1.0,-3.0,0.0,0.0,0.0,101
16,2,3820.58,59,4814.32,4815.84,14.74,B,mid,0.78,11,0.62,15,0.76,10,0.6,14,-999,32.0,3,2,1,3.0,-1.0,-3.0,0.0,-3.0,-1.0,100
16,2,3820.58,60,4830.91,4832.43,9.77,A,left,0.27,37,0.47,21,0.86,11,-999.0,-999,-999,99.0,1,2,3,0.0,0.0,0.0,0.0,0.0,0.0,111
16,2,3820.58,61,4842.54,4844.06,14.17,B,mid,0.78,11,0.62,15,0.85,9,0.55,19,-999,1.0,1,2,3,3.0,-1.0,-3.0,0.0,0.0,-1.0,1
16,2,3820.58,62,4858.57,4860.09,17.28,A,right,0.78,12,0.65,14,0.82,9,0.52,19,-999,1.0,3,2,1,3.0,0.0,0.0,-1.0,-3.0,-1.0,0
16,2,3820.58,63,4877.72,4879.23,21.95,C,left,0.75,12,0.62,15,0.88,9,0.58,19,-999,1.0,2,3,1,0.0,0.0,-3.0,0.0,3.0,-1.0,10
16,2,3820.58,64,4901.53,4903.04,14.52,A,right,0.78,12,0.68,15,0.76,11,0.66,14,-999,31.0,3,1,2,3.0,0.0,3.0,0.0,0.0,0.0,111
16,2,3820.58,65,4917.9,4919.42,20.17,B,mid,0.72,12,0.62,15,0.7,11,0.6,14,-999,32.0,3,2,1,-3.0,0.0,-3.0,0.0,0.0,0.0,110
16,2,3820.58,66,4939.93,4941.45,4.75,C,right,0.75,12,0.65,14,0.85,9,0.55,19,-999,2.0,1,2,3,0.0,0.0,0.0,-1.0,0.0,-1.0,100
16,2,3820.58,67,4946.53,4948.04,6.95,A,left,0.78,11,0.62,14,0.76,10,0.6,13,-999,32.0,1,2,3,3.0,-1.0,-3.0,-1.0,0.0,-1.0,0
16,2,3820.58,68,4955.32,4956.84,24.06,B,mid,0.72,12,0.68,15,0.82,10,0.52,20,-999,2.0,1,2,3,-3.0,0.0,3.0,0.0,-3.0,0.0,10
16,2,3820.58,69,4981.25,4982.77,4.36,A,right,0.78,12,0.62,14,0.76,11,0.6,13,-999,31.0,3,1,2,3.0,0.0,-3.0,-1.0,-3.0,0.0,0
16,2,3820.58,70,4987.46,4988.98,14.16,B,right,0.75,12,0.65,15,0.85,10,0.55,20,-999,1.0,2,3,1,0.0,0.0,0.0,0.0,0.0,0.0,110
16,2,3820.58,71,5003.48,5004.99,10.06,B,mid,0.72,11,0.68,14,0.7,10,0.66,13,-999,31.0,3,2,1,-3.0,-1.0,3.0,-1.0,-3.0,0.0,10
16,2,3820.58,72,5015.39,5016.91,15.99,C,left,0.75,11,0.62,15,0.88,10,0.58,20,-999,1.0,3,2,1,0.0,-1.0,-3.0,0.0,3.0,0.0,110
16,2,3820.58,73,5033.23,5034.75,9.51,B,left,0.78,11,0.68,15,0.76,10,0.66,14,-999,31.0,3,1,2,3.0,-1.0,3.0,0.0,0.0,0.0,10
16,2,3820.58,74,5044.6,5046.11,8.47,B,left,0.72,12,0.65,15,0.7,11,0.63,14,-999,31.0,2,1,3,-3.0,0.0,0.0,0.0,-3.0,-1.0,1
16,2,3820.58,75,5054.93,5056.44,10.09,B,mid,0.72,12,0.68,15,0.82,9,0.52,19,-999,1.0,3,2,1,-3.0,0.0,3.0,0.0,-3.0,-1.0,110
16,Estimation3,5237.65,E1,5237.7,5239.22,3.63,B,right,0.75,11,0.65,15,0.85,-999,0.55,20,3,,1,3,2,,,,,,,110
16,Estimation3,5237.65,E2,5243.18,5244.7,5.81,C,left,0.75,12,0.65,15,0.85,-999,0.55,20,1,2.0,3,2,1,,,,,,,110
16,Estimation3,5237.65,E3,5250.85,5252.36,11.88,B,mid,0.75,12,0.65,15,0.85,-999,0.55,18,3,,3,2,1,,,,,,,11
16,Estimation3,5237.65,E4,5264.58,5266.09,13.32,B,right,0.75,13,0.65,15,0.85,-999,0.55,18,1,2.0,1,3,2,,,,,,,111
16,Estimation3,5237.65,E5,5279.76,5281.27,17.69,B,left,0.75,13,0.65,15,0.85,-999,0.55,19,3,,3,1,2,,,,,,,100
16,Estimation3,5237.65,E6,5299.3,5300.82,10.75,C,left,0.75,13,0.65,15,0.85,7,0.55,19,1,2.0,3,2,1,,,,,,,11
16,Estimation3,5237.65,E7,5311.91,5313.43,10.27,A,left,0.75,13,0.65,15,0.85,7,0.55,19,2,1.0,1,2,3,,,,,,,110
16,Estimation3,5237.65,E8,5324.04,5325.56,17.07,C,right,0.75,13,0.65,15,0.85,9,0.55,19,1,2.0,1,2,3,,,,,,,0
16,Estimation3,5237.65,E9,5342.97,5344.49,6.99,A,right,0.75,13,0.65,15,0.85,9,0.55,19,2,1.0,3,2,1,,,,,,,111
16,Estimation3,5237.65,E10,5351.82,5353.33,10.32,C,mid,0.75,13,0.65,15,0.85,10,0.55,19,1,2.0,3,1,2,,,,,,,101
16,Estimation3,5237.65,E11,5364.0,5365.51,10.79,A,left,0.75,13,0.65,15,0.85,10,0.55,19,2,1.0,1,2,3,,,,,,,11
16,Estimation3,5237.65,E12,5376.64,5378.16,3.11,B,mid,0.75,13,0.65,15,0.85,11,0.55,19,1,2.0,3,2,1,,,,,,,0
16,Estimation3,5237.65,E13,5381.61,5383.12,18.85,C,mid,0.75,13,0.65,15,0.85,11,0.55,19,2,1.0,1,3,2,,,,,,,0
16,3,5406.26,1,5406.33,5407.85,9.95,A,right,0.72,13,0.62,14,0.7,12,0.6,13,-999,32.0,3,1,2,-3.0,0.0,-3.0,-1.0,0.0,0.0,100
16,3,5406.26,2,5418.15,5419.66,9.75,C,right,0.78,13,0.62,14,0.85,11,0.55,19,-999,2.0,2,1,3,3.0,0.0,-3.0,-1.0,0.0,0.0,110
16,3,5406.26,3,5429.74,5431.26,7.58,A,right,0.78,13,0.68,15,0.76,12,0.66,14,-999,31.0,3,2,1,3.0,0.0,3.0,0.0,0.0,0.0,111
16,3,5406.26,4,5439.17,5440.69,8.61,B,right,0.75,12,0.68,14,0.85,10,0.55,18,-999,2.0,2,3,1,0.0,-1.0,3.0,-1.0,0.0,-1.0,111
16,3,5406.26,5,5449.64,5451.15,11.86,A,mid,0.72,13,0.65,15,0.7,12,0.63,14,-999,31.0,2,1,3,-3.0,0.0,0.0,0.0,-3.0,-1.0,111
16,3,5406.26,6,5463.35,5464.86,19.79,A,mid,0.75,13,0.65,15,0.73,12,0.63,14,-999,31.0,2,3,1,0.0,0.0,0.0,0.0,0.0,-1.0,111
16,3,5406.26,7,5484.99,5486.51,16.52,A,left,0.78,13,0.65,14,0.82,10,0.52,18,-999,2.0,1,2,3,3.0,0.0,0.0,-1.0,-3.0,-1.0,11
16,3,5406.26,8,5503.37,5504.88,8.39,B,left,0.72,12,0.62,15,0.7,11,0.6,14,-999,32.0,3,1,2,-3.0,-1.0,-3.0,0.0,-3.0,-1.0,111
16,3,5406.26,9,5513.61,5515.13,5.99,A,left,0.75,13,0.65,15,0.73,12,0.63,14,-999,31.0,1,3,2,0.0,0.0,0.0,0.0,0.0,0.0,1
16,3,5406.26,10,5521.46,5522.98,6.74,A,right,0.78,12,0.62,14,0.76,11,0.6,13,-999,32.0,3,1,2,3.0,-1.0,-3.0,-1.0,0.0,-1.0,10
16,3,5406.26,11,5530.06,5531.58,13.22,B,mid,0.72,13,0.68,14,0.7,12,0.66,13,-999,32.0,1,2,3,-3.0,0.0,3.0,-1.0,0.0,-1.0,11
16,3,5406.26,12,5545.14,5546.65,12.29,B,right,0.72,12,0.65,15,0.88,10,0.58,18,-999,2.0,1,3,2,-3.0,-1.0,0.0,0.0,3.0,-1.0,10
16,3,5406.26,13,5559.28,5560.8,17.25,A,right,0.78,13,0.62,14,0.76,12,0.6,13,-999,31.0,3,1,2,3.0,0.0,-3.0,-1.0,-3.0,0.0,1
16,3,5406.26,14,5578.39,5579.91,14.13,B,right,0.75,12,0.68,14,0.73,11,0.66,13,-999,32.0,2,3,1,0.0,-1.0,3.0,-1.0,0.0,0.0,101
16,3,5406.26,15,5594.37,5595.89,7.84,A,right,0.78,12,0.62,15,0.76,11,0.6,14,-999,31.0,3,2,1,3.0,-1.0,-3.0,0.0,0.0,0.0,110
16,3,5406.26,16,5604.07,5605.59,9.75,A,right,0.78,13,0.62,14,0.85,10,0.55,18,-999,1.0,3,2,1,3.0,0.0,-3.0,-1.0,0.0,-1.0,111
16,3,5406.26,17,5615.67,5617.18,23.23,A,left,0.29,34,0.42,23,0.72,13,-999.0,-999,-999,99.0,1,2,3,0.0,0.0,0.0,0.0,0.0,0.0,1
16,3,5406.26,18,5640.76,5642.27,10.8,B,mid,0.75,12,0.68,14,0.73,11,0.66,13,-999,31.0,1,2,3,0.0,-1.0,3.0,-1.0,0.0,-1.0,0
16,3,5406.26,19,5653.4,5654.92,8.42,B,right,0.72,13,0.68,15,0.82,11,0.52,19,-999,2.0,2,3,1,-3.0,0.0,3.0,0.0,-3.0,0.0,111
16,3,5406.26,20,5663.68,5665.2,9.06,A,left,0.78,13,0.65,15,0.76,12,0.63,14,-999,32.0,1,3,2,3.0,0.0,0.0,0.0,-3.0,-1.0,11
16,3,5406.26,21,5674.6,5676.11,13.37,A,mid,0.75,13,0.62,15,0.88,10,0.58,18,-999,1.0,2,1,3,0.0,0.0,-3.0,0.0,3.0,-1.0,11
16,3,5406.26,22,5689.83,5691.34,17.65,A,left,0.72,13,0.65,15,0.82,10,0.52,18,-999,1.0,1,2,3,-3.0,0.0,0.0,0.0,-3.0,-1.0,110
16,3,5406.26,23,5709.32,5710.84,17.51,C,mid,0.78,12,0.68,15,0.88,11,0.58,19,-999,1.0,3,1,2,3.0,-1.0,3.0,0.0,3.0,0.0,10
16,3,5406.26,24,5728.68,5730.2,15.08,C,right,0.72,12,0.68,15,0.88,11,0.58,19,-999,2.0,2,1,3,-3.0,-1.0,3.0,0.0,3.0,0.0,100
16,3,5406.26,25,5745.61,5747.12,16.1,B,mid,0.75,12,0.62,15,0.88,11,0.58,19,-999,1.0,1,2,3,0.0,-1.0,-3.0,0.0,3.0,0.0,11
16,3,5406.26,26,5763.57,5765.09,9.0,A,left,0.78,13,0.68,15,0.82,11,0.52,19,-999,1.0,1,3,2,3.0,0.0,3.0,0.0,-3.0,0.0,111
16,3,5406.26,27,5774.42,5775.93,15.75,B,right,0.72,12,0.65,15,0.7,11,0.63,14,-999,31.0,2,3,1,-3.0,-1.0,0.0,0.0,3.0,-1.0,11
16,3,5406.26,28,5792.01,5793.53,9.5,A,mid,0.32,31,0.48,20,0.85,11,-999.0,-999,-999,99.0,2,3,1,0.0,0.0,0.0,0.0,0.0,0.0,10
16,3,5406.26,29,5803.37,5804.89,27.04,A,right,0.32,31,0.6,16,0.78,12,-999.0,-999,-999,99.0,3,2,1,0.0,0.0,0.0,0.0,0.0,0.0,101
16,3,5406.26,30,5832.26,5833.78,8.73,A,right,0.78,13,0.65,14,0.82,11,0.52,19,-999,1.0,3,2,1,3.0,0.0,0.0,-1.0,-3.0,0.0,111
16,3,5406.26,31,5842.84,5844.36,22.07,B,left,0.72,13,0.68,14,0.88,11,0.58,19,-999,2.0,3,1,2,-3.0,0.0,3.0,-1.0,3.0,0.0,10
16,3,5406.26,32,5866.77,5868.29,11.09,C,right,0.72,12,0.65,15,0.85,11,0.55,19,-999,2.0,2,1,3,-3.0,-1.0,0.0,0.0,0.0,0.0,110
16,3,5406.26,33,5879.72,5881.23,10.86,A,left,0.78,12,0.68,14,0.76,11,0.66,13,-999,32.0,1,3,2,3.0,-1.0,3.0,-1.0,3.0,-1.0,0
16,3,5406.26,34,5892.43,5893.94,14.9,A,mid,0.78,12,0.62,15,0.76,11,0.6,14,-999,32.0,2,3,1,3.0,-1.0,-3.0,0.0,-3.0,-1.0,11
16,3,5406.26,35,5909.19,5910.71,9.44,A,left,0.31,32,0.38,26,0.85,11,-999.0,-999,-999,99.0,1,2,3,0.0,0.0,0.0,0.0,0.0,0.0,11
16,3,5406.26,36,5920.49,5922.0,11.66,A,right,0.78,13,0.68,15,0.88,10,0.58,18,-999,1.0,3,1,2,3.0,0.0,3.0,0.0,3.0,-1.0,110
16,3,5406.26,37,5934.0,5935.51,16.1,A,right,0.72,13,0.62,15,0.7,12,0.6,14,-999,32.0,3,1,2,-3.0,0.0,-3.0,0.0,0.0,0.0,10
16,3,5406.26,38,6038.9,6040.41,12.78,B,right,0.78,12,0.68,15,0.76,11,0.66,14,-999,31.0,1,3,2,3.0,-1.0,3.0,0.0,0.0,0.0,1
16,3,5406.26,39,6053.53,6055.04,17.47,C,right,0.27,37,0.61,16,0.89,11,-999.0,-999,-999,99.0,2,1,3,0.0,0.0,0.0,0.0,0.0,0.0,11
16,3,5406.26,40,6072.85,6074.37,10.63,A,left,0.78,13,0.65,14,0.82,10,0.52,18,-999,1.0,1,3,2,3.0,0.0,0.0,-1.0,-3.0,-1.0,110
16,3,5406.26,41,6085.33,6086.85,11.5,A,mid,0.72,13,0.65,14,0.7,12,0.63,13,-999,32.0,2,1,3,-3.0,0.0,0.0,-1.0,3.0,0.0,100
16,3,5406.26,42,6098.7,6100.21,11.79,B,right,0.78,12,0.62,15,0.85,10,0.55,18,-999,1.0,2,3,1,3.0,-1.0,-3.0,0.0,0.0,-1.0,10
16,3,5406.26,43,6112.34,6113.86,11.64,B,mid,0.72,12,0.65,15,0.7,11,0.63,14,-999,31.0,3,2,1,-3.0,-1.0,0.0,0.0,3.0,-1.0,1
16,3,5406.26,44,6125.84,6127.35,12.63,B,left,0.75,12,0.62,15,0.73,11,0.6,14,-999,32.0,2,1,3,0.0,-1.0,-3.0,0.0,-3.0,0.0,10
16,3,5406.26,45,6140.32,6141.83,12.1,A,right,0.19,52,0.56,17,0.8,12,-999.0,-999,-999,99.0,3,1,2,0.0,0.0,0.0,0.0,0.0,0.0,100
16,3,5406.26,46,6154.26,6155.78,24.3,C,right,0.75,12,0.62,15,0.88,10,0.58,18,-999,2.0,1,2,3,0.0,-1.0,-3.0,0.0,3.0,-1.0,100
16,3,5406.26,47,6180.42,6181.94,5.42,A,mid,0.72,13,0.62,15,0.7,12,0.6,14,-999,31.0,2,3,1,-3.0,0.0,-3.0,0.0,0.0,-1.0,0
16,3,5406.26,48,6187.68,6189.2,4.77,B,mid,0.72,12,0.65,14,0.7,11,0.63,13,-999,31.0,3,2,1,-3.0,-1.0,0.0,-1.0,3.0,-1.0,11
16,3,5406.26,49,6194.3,6195.82,26.48,A,left,0.19,52,0.59,16,0.81,12,-999.0,-999,-999,99.0,1,3,2,0.0,0.0,0.0,0.0,0.0,0.0,0
16,3,5406.26,50,6222.64,6224.16,21.17,C,mid,0.28,35,0.67,14,0.78,12,-999.0,-999,-999,99.0,3,1,2,0.0,0.0,0.0,0.0,0.0,0.0,110
16,3,5406.26,51,6245.67,6247.18,9.31,C,mid,0.72,12,0.62,14,0.88,11,0.58,19,-999,2.0,1,3,2,-3.0,-1.0,-3.0,-1.0,3.0,0.0,100
16,3,5406.26,52,6256.83,6258.35,8.5,A,left,0.75,13,0.65,14,0.73,12,0.63,13,-999,31.0,1,3,2,0.0,0.0,0.0,-1.0,-3.0,-1.0,111
16,3,5406.26,53,6267.19,6268.71,6.48,C,left,0.72,13,0.62,14,0.85,11,0.55,19,-999,2.0,2,3,1,-3.0,0.0,-3.0,-1.0,0.0,0.0,111
16,3,5406.26,54,6275.54,6277.06,22.59,B,mid,0.72,13,0.68,15,0.82,10,0.52,18,-999,1.0,3,2,1,-3.0,0.0,3.0,0.0,-3.0,-1.0,101
16,3,5406.26,55,6299.98,6301.5,8.62,C,left,0.72,13,0.62,14,0.85,11,0.55,19,-999,2.0,3,2,1,-3.0,0.0,-3.0,-1.0,0.0,0.0,1
16,3,5406.26,56,6310.46,6311.98,10.53,B,left,0.78,12,0.68,15,0.85,10,0.55,18,-999,1.0,3,1,2,3.0,-1.0,3.0,0.0,0.0,-1.0,100
16,3,5406.26,57,6322.86,6324.37,12.06,A,mid,0.75,13,0.65,15,0.82,10,0.52,18,-999,1.0,2,1,3,0.0,0.0,0.0,0.0,-3.0,-1.0,0
16,3,5406.26,58,6336.77,6338.29,10.46,B,right,0.75,12,0.68,15,0.88,11,0.58,19,-999,1.0,2,3,1,0.0,-1.0,3.0,0.0,3.0,0.0,111
16,3,5406.26,59,6349.08,6350.6,7.25,A,right,0.78,13,0.65,15,0.76,12,0.63,14,-999,32.0,3,2,1,3.0,0.0,0.0,0.0,0.0,0.0,111
16,3,5406.26,60,6358.18,6359.7,10.42,A,mid,0.78,13,0.62,15,0.76,12,0.6,14,-999,32.0,2,1,3,3.0,0.0,-3.0,0.0,3.0,0.0,101
16,3,5406.26,61,6370.44,6371.96,11.55,A,mid,0.75,13,0.65,15,0.85,11,0.55,19,-999,1.0,2,3,1,0.0,0.0,0.0,0.0,0.0,0.0,101
16,3,5406.26,62,6383.86,6385.37,3.59,C,right,0.75,13,0.62,14,0.88,11,0.58,19,-999,2.0,1,2,3,0.0,0.0,-3.0,-1.0,3.0,0.0,111
16,3,5406.26,63,6389.3,6390.82,7.4,A,right,0.75,13,0.65,14,0.73,12,0.63,13,-999,31.0,3,1,2,0.0,0.0,0.0,-1.0,0.0,0.0,100
16,3,5406.26,64,6398.55,6400.07,16.03,B,right,0.72,13,0.65,15,0.82,10,0.52,18,-999,2.0,1,3,2,-3.0,0.0,0.0,0.0,-3.0,-1.0,101
16,3,5406.26,65,6416.43,6417.95,14.51,B,right,0.72,13,0.68,15,0.82,10,0.52,18,-999,1.0,1,3,2,-3.0,0.0,3.0,0.0,-3.0,-1.0,100
16,3,5406.26,66,6432.79,6434.31,16.55,A,mid,0.24,41,0.37,27,0.76,13,-999.0,-999,-999,99.0,2,3,1,0.0,0.0,0.0,0.0,0.0,0.0,101
16,3,5406.26,67,6451.2,6452.72,6.71,B,right,0.72,13,0.62,15,0.7,12,0.6,14,-999,32.0,1,3,2,-3.0,0.0,-3.0,0.0,3.0,-1.0,111
16,3,5406.26,68,6459.77,6461.28,24.82,C,left,0.72,12,0.68,14,0.85,11,0.55,19,-999,2.0,2,3,1,-3.0,-1.0,3.0,-1.0,0.0,0.0,10
16,3,5406.26,69,6486.44,6487.96,7.49,B,mid,0.75,12,0.65,15,0.73,11,0.63,14,-999,31.0,3,2,1,0.0,-1.0,0.0,0.0,3.0,-1.0,0
16,3,5406.26,70,6495.79,6497.3,4.25,B,right,0.72,12,0.68,14,0.7,11,0.66,13,-999,31.0,2,3,1,-3.0,-1.0,3.0,-1.0,-3.0,0.0,111
16,3,5406.26,71,6501.89,6503.4,12.83,A,mid,0.75,12,0.65,14,0.73,11,0.63,13,-999,32.0,2,3,1,0.0,-1.0,0.0,-1.0,3.0,0.0,10
16,3,5406.26,72,6516.56,6518.08,19.96,C,mid,0.27,37,0.47,21,0.86,11,-999.0,-999,-999,99.0,1,3,2,0.0,0.0,0.0,0.0,0.0,0.0,11
16,3,5406.26,73,6538.37,6539.89,9.83,A,left,0.16,62,0.46,21,0.87,11,-999.0,-999,-999,99.0,1,3,2,0.0,0.0,0.0,0.0,0.0,0.0,0
16,3,5406.26,74,6550.05,6551.57,20.12,A,mid,0.75,13,0.65,14,0.85,10,0.55,18,-999,2.0,2,1,3,0.0,0.0,0.0,-1.0,0.0,-1.0,110
16,3,5406.26,75,6572.03,6573.55,16.08,B,left,0.78,12,0.65,15,0.76,11,0.63,14,-999,32.0,2,1,3,3.0,-1.0,0.0,0.0,-3.0,-1.0,111
