subject,block,block_onset,trial,fixation_cross_onset,trial_onset,rt,choice,key,pA,mA,pB,mB,pCA,mCA,pCB,mCB,missing,condition,position_A,position_B,position_C,noise_Ap,noise_Am,noise_Bp,noise_Bm,noise_Cp,noise_Cm,attribute_positions
39,Practice,1061.78,P1,1061.84,1063.36,6.32,B,left,0.78,7,0.62,17,0.85,3,0.55,24,-999,2.0,3,1,2,3.0,-2.0,-3.0,2.0,0.0,-1.0,1
39,Practice,1061.78,P2,1070.02,1071.54,6.65,B,mid,0.72,7,0.62,16,0.88,5,0.58,26,-999,2.0,1,2,3,-3.0,-2.0,-3.0,1.0,3.0,1.0,10
39,Practice,1061.78,P3,1078.54,1080.05,21.21,A,mid,0.75,11,0.68,13,0.85,4,0.55,25,-999,1.0,2,3,1,0.0,2.0,3.0,-2.0,0.0,0.0,110
39,Practice,1061.78,P4,1101.6,1103.11,11.48,B,left,0.75,9,0.65,15,0.88,5,0.58,26,-999,1.0,3,1,2,0.0,0.0,0.0,0.0,3.0,1.0,100
39,Practice,1061.78,P5,1114.94,1116.46,14.93,A,left,0.72,11,0.62,13,0.85,6,0.55,27,-999,1.0,1,3,2,-3.0,2.0,-3.0,-2.0,0.0,2.0,101
39,Practice,1061.78,P6,1131.72,1133.24,14.91,B,right,0.78,7,0.62,13,0.82,6,0.52,27,-999,2.0,2,3,1,3.0,-2.0,-3.0,-2.0,-3.0,2.0,110
39,Practice,1061.78,P7,1148.48,1150.0,7.14,B,left,0.75,7,0.65,17,0.85,5,0.55,26,-999,2.0,2,1,3,0.0,-2.0,0.0,2.0,0.0,1.0,111
39,Practice,1061.78,P8,1157.48,1158.99,4.4,B,left,0.72,8,0.68,15,0.82,6,0.52,27,-999,2.0,3,1,2,-3.0,-1.0,3.0,0.0,-3.0,2.0,110
39,Practice,1061.78,P9,1163.74,1165.26,8.56,B,left,0.78,8,0.62,16,0.88,5,0.58,26,-999,1.0,3,1,2,3.0,-1.0,-3.0,1.0,3.0,1.0,1
39,Practice,1061.78,P10,1174.16,1175.67,4.52,A,left,0.75,10,0.65,16,0.82,2,0.52,23,-999,2.0,1,2,3,0.0,1.0,0.0,1.0,-3.0,-2.0,101
39,Practice,1061.78,P11,1180.54,1182.05,6.17,C,left,0.72,8,0.65,15,0.85,5,0.55,26,-999,2.0,2,3,1,-3.0,-1.0,0.0,0.0,0.0,1.0,0
39,Practice,1061.78,P12,1188.57,1190.08,4.92,A,mid,0.72,8,0.68,15,0.85,5,0.55,26,-999,1.0,2,3,1,-3.0,-1.0,3.0,0.0,0.0,1.0,101
39,Practice,1061.78,P13,1195.35,1196.86,7.47,A,mid,0.78,11,0.68,16,0.88,5,0.58,26,-999,1.0,2,1,3,3.0,2.0,3.0,1.0,3.0,1.0,111
39,Practice,1061.78,P14,1204.68,1206.2,7.72,B,mid,0.72,11,0.62,17,0.82,3,0.52,24,-999,2.0,3,2,1,-3.0,2.0,-3.0,2.0,-3.0,-1.0,0
39,Practice,1061.78,P15,1214.26,1215.78,3.12,B,right,0.78,7,0.68,14,0.88,5,0.58,26,-999,2.0,2,3,1,3.0,-2.0,3.0,-1.0,3.0,1.0,10
39,Practice,1061.78,P16,1219.24,1220.76,3.96,C,right,0.78,7,0.65,13,0.82,2,0.52,23,-999,2.0,2,1,3,3.0,-2.0,0.0,-2.0,-3.0,-2.0,1
39,Practice,1061.78,P17,1225.06,1226.57,4.71,C,left,0.72,10,0.65,13,0.82,5,0.52,26,-999,2.0,3,2,1,-3.0,1.0,0.0,-2.0,-3.0,1.0,110
39,Practice,1061.78,P18,1231.62,1233.14,6.57,B,left,0.78,7,0.68,13,0.88,2,0.58,23,-999,2.0,3,1,2,3.0,-2.0,3.0,-2.0,3.0,-2.0,10
39,Practice,1061.78,P19,1240.05,1241.57,6.83,B,left,0.78,11,0.62,15,0.85,4,0.55,25,-999,1.0,3,1,2,3.0,2.0,-3.0,0.0,0.0,0.0,110
39,Practice,1061.78,P20,1248.73,1250.25,2.37,B,right,0.72,7,0.65,14,0.88,4,0.58,25,-999,1.0,1,3,2,-3.0,-2.0,0.0,-1.0,3.0,0.0,11
39,Practice,1061.78,P21,1252.96,1254.48,2.67,B,left,0.78,9,0.65,16,0.85,2,0.55,23,-999,1.0,3,1,2,3.0,0.0,0.0,1.0,0.0,-2.0,0
39,Practice,1061.78,P22,1257.48,1258.99,2.22,B,right,0.72,9,0.62,15,0.85,2,0.55,23,-999,1.0,1,3,2,-3.0,0.0,-3.0,0.0,0.0,-2.0,10
39,Practice,1061.78,P23,1261.56,1263.08,5.94,B,left,0.72,7,0.65,13,0.88,3,0.58,24,-999,1.0,3,1,2,-3.0,-2.0,0.0,-2.0,3.0,-1.0,100
39,Practice,1061.78,P24,1269.36,1270.87,3.78,B,left,0.78,7,0.65,13,0.82,5,0.52,26,-999,2.0,2,1,3,3.0,-2.0,0.0,-2.0,-3.0,1.0,10
39,Practice,1061.78,P25,1274.99,1276.51,4.84,B,right,0.78,10,0.68,13,0.85,4,0.55,25,-999,1.0,2,3,1,3.0,1.0,3.0,-2.0,0.0,0.0,111
39,Estimation1,1421.46,E1,1421.53,1423.04,4.35,B,left,0.75,11,0.65,15,0.85,-999,0.55,20,3,,2,1,3,,,,,,,11
39,Estimation1,1421.46,E2,1427.72,1429.24,3.87,C,mid,0.75,12,0.65,15,0.85,-999,0.55,20,1,2.0,1,3,2,,,,,,,101
39,Estimation1,1421.46,E3,1433.45,1434.97,3.47,B,left,0.75,12,0.65,15,0.85,-999,0.55,18,3,,3,1,2,,,,,,,100
39,Estimation1,1421.46,E4,1438.79,1440.3,3.42,C,left,0.75,13,0.65,15,0.85,-999,0.55,18,1,2.0,2,3,1,,,,,,,101
39,Estimation1,1421.46,E5,1444.07,1445.58,5.25,A,left,0.75,13,0.65,15,0.85,-999,0.55,17,3,,1,2,3,,,,,,,1
39,Estimation1,1421.46,E6,1451.17,1452.68,4.96,C,right,0.75,13,0.65,15,0.85,7,0.55,17,1,2.0,2,1,3,,,,,,,101
39,Estimation1,1421.46,E7,1457.98,1459.5,3.54,A,left,0.75,13,0.65,15,0.85,7,0.55,17,2,1.0,1,2,3,,,,,,,100
39,Estimation1,1421.46,E8,1463.38,1464.89,3.66,C,left,0.75,13,0.65,15,0.85,9,0.55,17,1,2.0,2,3,1,,,,,,,100
39,Estimation1,1421.46,E9,1468.89,1470.41,2.49,A,right,0.75,13,0.65,15,0.85,9,0.55,17,2,1.0,3,2,1,,,,,,,100
39,Estimation1,1421.46,E10,1473.24,1474.76,3.31,B,right,0.75,13,0.65,15,0.85,10,0.55,17,1,2.0,1,3,2,,,,,,,0
39,Estimation1,1421.46,E11,1478.41,1479.92,3.59,A,left,0.75,13,0.65,15,0.85,10,0.55,17,2,1.0,1,2,3,,,,,,,101
39,Estimation1,1421.46,E12,1483.86,1485.37,2.11,C,right,0.75,13,0.65,15,0.85,11,0.55,17,1,2.0,2,1,3,,,,,,,110
39,Estimation1,1421.46,E13,1487.82,1489.34,1.88,C,right,0.75,13,0.65,15,0.85,11,0.55,17,2,1.0,2,1,3,,,,,,,11
39,1,1494.26,1,1494.34,1495.85,7.28,C,mid,0.31,32,0.38,26,0.85,11,-999.0,-999,-999,99.0,1,3,2,0.0,0.0,0.0,0.0,0.0,0.0,0
39,1,1494.26,2,1503.48,1505.0,3.19,B,right,0.78,13,0.68,15,0.82,11,0.52,17,-999,1.0,1,3,2,3.0,0.0,3.0,0.0,-3.0,0.0,0
39,1,1494.26,3,1508.53,1510.05,5.44,B,left,0.72,13,0.62,14,0.7,12,0.6,13,-999,32.0,2,1,3,-3.0,0.0,-3.0,-1.0,0.0,0.0,111
39,1,1494.26,4,1515.83,1517.34,5.29,B,right,0.75,12,0.68,14,0.73,11,0.66,13,-999,31.0,1,3,2,0.0,-1.0,3.0,-1.0,0.0,-1.0,110
39,1,1494.26,5,1522.98,1524.49,6.2,C,mid,0.27,37,0.61,16,0.89,11,-999.0,-999,-999,99.0,1,3,2,0.0,0.0,0.0,0.0,0.0,0.0,111
39,1,1494.26,6,1531.04,1532.56,1.95,A,right,0.32,31,0.6,16,0.78,12,-999.0,-999,-999,99.0,3,2,1,0.0,0.0,0.0,0.0,0.0,0.0,111
39,1,1494.26,7,1534.84,1536.35,2.56,B,right,0.78,12,0.68,15,0.88,11,0.58,17,-999,1.0,1,3,2,3.0,-1.0,3.0,0.0,3.0,0.0,101
39,1,1494.26,8,1539.25,1540.77,4.4,B,mid,0.72,13,0.62,15,0.7,12,0.6,14,-999,31.0,1,2,3,-3.0,0.0,-3.0,0.0,0.0,-1.0,101
39,1,1494.26,9,1545.5,1547.02,3.74,B,mid,0.75,13,0.65,14,0.73,12,0.63,13,-999,31.0,3,2,1,0.0,0.0,0.0,-1.0,0.0,0.0,1
39,1,1494.26,10,1551.1,1552.62,4.07,B,right,0.75,12,0.62,15,0.88,11,0.58,17,-999,1.0,1,3,2,0.0,-1.0,-3.0,0.0,3.0,0.0,100
39,1,1494.26,11,1557.03,1558.55,3.66,B,right,0.78,13,0.68,15,0.76,12,0.66,14,-999,31.0,2,3,1,3.0,0.0,3.0,0.0,0.0,0.0,101
39,1,1494.26,12,1562.55,1564.06,3.86,C,left,0.27,37,0.47,21,0.86,11,-999.0,-999,-999,99.0,3,2,1,0.0,0.0,0.0,0.0,0.0,0.0,111
39,1,1494.26,13,1568.26,1569.78,3.46,B,right,0.78,13,0.65,15,0.76,12,0.63,14,-999,32.0,1,3,2,3.0,0.0,0.0,0.0,0.0,0.0,101
39,1,1494.26,14,1573.58,1575.09,8.77,A,right,0.72,13,0.65,14,0.7,12,0.63,13,-999,32.0,3,1,2,-3.0,0.0,0.0,-1.0,3.0,0.0,0
39,1,1494.26,15,1584.21,1585.72,5.14,B,left,0.72,13,0.68,15,0.82,10,0.52,16,-999,1.0,3,1,2,-3.0,0.0,3.0,0.0,-3.0,-1.0,0
39,1,1494.26,16,1591.2,1592.72,3.29,C,mid,0.72,13,0.68,15,0.82,11,0.52,17,-999,2.0,3,1,2,-3.0,0.0,3.0,0.0,-3.0,0.0,111
39,1,1494.26,17,1596.35,1597.87,9.03,B,left,0.72,12,0.65,15,0.88,10,0.58,16,-999,2.0,3,1,2,-3.0,-1.0,0.0,0.0,3.0,-1.0,10
39,1,1494.26,18,1607.25,1608.76,7.3,B,mid,0.72,12,0.62,15,0.7,11,0.6,14,-999,32.0,3,2,1,-3.0,-1.0,-3.0,0.0,-3.0,-1.0,110
39,1,1494.26,19,1616.4,1617.91,5.58,B,left,0.78,12,0.68,15,0.85,10,0.55,16,-999,1.0,2,1,3,3.0,-1.0,3.0,0.0,0.0,-1.0,0
39,1,1494.26,20,1623.83,1625.34,8.15,B,left,0.72,13,0.65,15,0.7,12,0.63,14,-999,31.0,2,1,3,-3.0,0.0,0.0,0.0,-3.0,-1.0,11
39,1,1494.26,21,1633.84,1635.36,11.36,B,left,0.78,13,0.65,14,0.82,10,0.52,16,-999,1.0,2,1,3,3.0,0.0,0.0,-1.0,-3.0,-1.0,101
39,1,1494.26,22,1647.05,1648.57,4.82,B,left,0.75,13,0.65,15,0.85,11,0.55,17,-999,1.0,2,1,3,0.0,0.0,0.0,0.0,0.0,0.0,1
39,1,1494.26,23,1653.73,1655.25,4.32,C,left,0.72,13,0.68,15,0.82,10,0.52,16,-999,1.0,2,3,1,-3.0,0.0,3.0,0.0,-3.0,-1.0,11
39,1,1494.26,24,1659.91,1661.43,6.57,B,mid,0.75,13,0.65,15,0.82,10,0.52,16,-999,1.0,1,2,3,0.0,0.0,0.0,0.0,-3.0,-1.0,100
39,1,1494.26,25,1668.35,1669.86,2.69,C,mid,0.72,13,0.62,15,0.7,12,0.6,14,-999,32.0,1,3,2,-3.0,0.0,-3.0,0.0,0.0,0.0,11
39,1,1494.26,26,1672.89,1674.41,3.5,A,left,0.75,13,0.65,15,0.73,12,0.63,14,-999,31.0,1,2,3,0.0,0.0,0.0,0.0,0.0,-1.0,101
39,1,1494.26,27,1678.24,1679.76,2.31,A,left,0.72,12,0.62,14,0.88,11,0.58,17,-999,2.0,1,2,3,-3.0,-1.0,-3.0,-1.0,3.0,0.0,111
39,1,1494.26,28,1682.41,1683.92,3.06,C,right,0.78,13,0.65,14,0.82,10,0.52,16,-999,2.0,2,1,3,3.0,0.0,0.0,-1.0,-3.0,-1.0,101
39,1,1494.26,29,1687.32,1688.84,2.12,B,right,0.75,13,0.62,15,0.88,10,0.58,16,-999,1.0,2,3,1,0.0,0.0,-3.0,0.0,3.0,-1.0,100
39,1,1494.26,30,1691.3,1692.82,1.81,B,left,0.72,13,0.65,15,0.82,10,0.52,16,-999,1.0,2,1,3,-3.0,0.0,0.0,0.0,-3.0,-1.0,0
39,1,1494.26,31,1694.97,1696.49,1.82,C,left,0.72,12,0.68,15,0.88,11,0.58,17,-999,2.0,2,3,1,-3.0,-1.0,3.0,0.0,3.0,0.0,110
39,1,1494.26,32,1698.65,1700.17,6.25,A,left,0.19,52,0.59,16,0.81,12,-999.0,-999,-999,99.0,1,2,3,0.0,0.0,0.0,0.0,0.0,0.0,10
39,1,1494.26,33,1706.77,1708.28,2.71,C,mid,0.75,12,0.65,14,0.73,11,0.63,13,-999,32.0,1,3,2,0.0,-1.0,0.0,-1.0,3.0,0.0,100
39,1,1494.26,34,1711.33,1712.85,2.59,C,mid,0.75,13,0.62,14,0.88,11,0.58,17,-999,2.0,3,1,2,0.0,0.0,-3.0,-1.0,3.0,0.0,110
39,1,1494.26,35,1715.78,1717.3,3.01,C,left,0.72,13,0.65,15,0.82,10,0.52,16,-999,2.0,2,3,1,-3.0,0.0,0.0,0.0,-3.0,-1.0,0
39,1,1494.26,36,1720.64,1722.16,4.03,A,mid,0.29,34,0.42,23,0.72,13,-999.0,-999,-999,99.0,2,1,3,0.0,0.0,0.0,0.0,0.0,0.0,111
39,1,1494.26,37,1726.53,1728.04,5.3,B,mid,0.78,12,0.68,15,0.76,11,0.66,14,-999,31.0,1,2,3,3.0,-1.0,3.0,0.0,0.0,0.0,100
39,1,1494.26,38,1789.92,1791.44,4.97,B,mid,0.72,13,0.62,15,0.7,12,0.6,14,-999,32.0,1,2,3,-3.0,0.0,-3.0,0.0,3.0,-1.0,110
39,1,1494.26,39,1796.75,1798.27,2.58,A,left,0.16,62,0.46,21,0.87,11,-999.0,-999,-999,99.0,1,2,3,0.0,0.0,0.0,0.0,0.0,0.0,11
39,1,1494.26,40,1801.19,1802.7,6.0,A,right,0.78,13,0.65,14,0.82,11,0.52,17,-999,1.0,3,1,2,3.0,0.0,0.0,-1.0,-3.0,0.0,110
39,1,1494.26,41,1809.03,1810.55,2.44,C,right,0.75,12,0.68,14,0.85,10,0.55,16,-999,2.0,2,1,3,0.0,-1.0,3.0,-1.0,0.0,-1.0,110
39,1,1494.26,42,1813.33,1814.85,4.33,C,mid,0.72,13,0.68,14,0.88,11,0.58,17,-999,2.0,1,3,2,-3.0,0.0,3.0,-1.0,3.0,0.0,1
39,1,1494.26,43,1819.51,1821.03,4.75,B,mid,0.75,12,0.62,15,0.73,11,0.6,14,-999,32.0,1,2,3,0.0,-1.0,-3.0,0.0,-3.0,0.0,110
39,1,1494.26,44,1826.13,1827.64,3.05,B,left,0.72,13,0.62,14,0.85,11,0.55,17,-999,2.0,3,1,2,-3.0,0.0,-3.0,-1.0,0.0,0.0,10
39,1,1494.26,45,1831.04,1832.56,3.28,C,left,0.78,13,0.68,15,0.88,10,0.58,16,-999,1.0,3,2,1,3.0,0.0,3.0,0.0,3.0,-1.0,1
39,1,1494.26,46,1836.19,1837.71,3.54,A,mid,0.78,13,0.62,14,0.85,10,0.55,16,-999,1.0,2,1,3,3.0,0.0,-3.0,-1.0,0.0,-1.0,10
39,1,1494.26,47,1841.59,1843.11,3.43,B,right,0.78,12,0.68,14,0.76,11,0.66,13,-999,32.0,2,3,1,3.0,-1.0,3.0,-1.0,3.0,-1.0,11
39,1,1494.26,48,1846.87,1848.39,4.98,A,left,0.78,13,0.65,15,0.76,12,0.63,14,-999,32.0,1,2,3,3.0,0.0,0.0,0.0,-3.0,-1.0,10
39,1,1494.26,49,1853.7,1855.22,5.77,C,right,0.78,13,0.62,14,0.85,11,0.55,17,-999,2.0,1,2,3,3.0,0.0,-3.0,-1.0,0.0,0.0,11
39,1,1494.26,50,1861.33,1862.85,1.95,A,right,0.72,12,0.65,14,0.7,11,0.63,13,-999,31.0,3,2,1,-3.0,-1.0,0.0,-1.0,3.0,-1.0,0
39,1,1494.26,51,1865.13,1866.65,2.51,A,mid,0.72,12,0.68,14,0.85,11,0.55,17,-999,2.0,2,1,3,-3.0,-1.0,3.0,-1.0,0.0,0.0,1
39,1,1494.26,52,1869.5,1871.01,2.01,B,left,0.78,12,0.62,15,0.76,11,0.6,14,-999,31.0,2,1,3,3.0,-1.0,-3.0,0.0,0.0,0.0,10
39,1,1494.26,53,1873.36,1874.88,3.12,A,left,0.24,41,0.37,27,0.76,13,-999.0,-999,-999,99.0,1,2,3,0.0,0.0,0.0,0.0,0.0,0.0,0
39,1,1494.26,54,1878.33,1879.84,5.0,B,left,0.75,12,0.68,14,0.73,11,0.66,13,-999,32.0,2,1,3,0.0,-1.0,3.0,-1.0,0.0,0.0,100
39,1,1494.26,55,1885.17,1886.69,3.69,A,left,0.78,12,0.62,15,0.85,10,0.55,16,-999,1.0,1,2,3,3.0,-1.0,-3.0,0.0,0.0,-1.0,0
39,1,1494.26,56,1890.72,1892.24,6.74,A,mid,0.32,31,0.48,20,0.85,11,-999.0,-999,-999,99.0,2,3,1,0.0,0.0,0.0,0.0,0.0,0.0,10
39,1,1494.26,57,1899.32,1900.84,2.58,B,mid,0.75,13,0.65,15,0.73,12,0.63,14,-999,31.0,1,2,3,0.0,0.0,0.0,0.0,0.0,0.0,101
39,1,1494.26,58,1903.75,1905.27,1.61,B,right,0.72,12,0.65,15,0.7,11,0.63,14,-999,31.0,1,3,2,-3.0,-1.0,0.0,0.0,3.0,-1.0,111
39,1,1494.26,59,1907.22,1908.73,3.1,C,right,0.75,13,0.65,14,0.85,10,0.55,16,-999,2.0,2,1,3,0.0,0.0,0.0,-1.0,0.0,-1.0,100
39,1,1494.26,60,1912.17,1913.68,3.93,C,mid,0.78,13,0.62,15,0.76,12,0.6,14,-999,32.0,3,1,2,3.0,0.0,-3.0,0.0,3.0,0.0,110
39,1,1494.26,61,1917.96,1919.48,4.5,A,right,0.75,12,0.65,15,0.73,11,0.63,14,-999,31.0,3,2,1,0.0,-1.0,0.0,0.0,3.0,-1.0,1
39,1,1494.26,62,1924.33,1925.85,1.71,B,left,0.75,13,0.65,14,0.73,12,0.63,13,-999,31.0,3,1,2,0.0,0.0,0.0,-1.0,-3.0,-1.0,111
39,1,1494.26,63,1927.89,1929.41,1.97,B,mid,0.75,12,0.68,15,0.88,11,0.58,17,-999,1.0,3,2,1,0.0,-1.0,3.0,0.0,3.0,0.0,0
39,1,1494.26,64,1931.71,1933.23,2.14,B,mid,0.78,12,0.62,15,0.76,11,0.6,14,-999,32.0,1,2,3,3.0,-1.0,-3.0,0.0,-3.0,-1.0,0
39,1,1494.26,65,1935.71,1937.22,0.54,C,left,0.78,12,0.62,14,0.76,11,0.6,13,-999,32.0,2,3,1,3.0,-1.0,-3.0,-1.0,0.0,-1.0,110
39,1,1494.26,66,1938.11,1939.62,5.56,A,mid,0.72,12,0.65,15,0.7,11,0.63,14,-999,31.0,2,1,3,-3.0,-1.0,0.0,0.0,3.0,-1.0,101
39,1,1494.26,67,1945.52,1947.04,5.75,A,mid,0.28,35,0.67,14,0.78,12,-999.0,-999,-999,99.0,2,1,3,0.0,0.0,0.0,0.0,0.0,0.0,111
39,1,1494.26,68,1953.12,1954.64,4.75,A,left,0.72,13,0.68,14,0.7,12,0.66,13,-999,32.0,1,3,2,-3.0,0.0,3.0,-1.0,0.0,-1.0,10
39,1,1494.26,69,1959.72,1961.23,3.7,A,left,0.72,12,0.68,14,0.7,11,0.66,13,-999,31.0,1,2,3,-3.0,-1.0,3.0,-1.0,-3.0,0.0,111
39,1,1494.26,70,1965.28,1966.8,2.63,B,left,0.78,12,0.65,15,0.76,11,0.63,14,-999,32.0,3,1,2,3.0,-1.0,0.0,0.0,-3.0,-1.0,111
39,1,1494.26,71,1969.76,1971.28,6.19,A,right,0.78,13,0.62,14,0.76,12,0.6,13,-999,31.0,3,2,1,3.0,0.0,-3.0,-1.0,-3.0,0.0,100
39,1,1494.26,72,1977.81,1979.33,3.46,C,mid,0.72,13,0.62,14,0.85,11,0.55,17,-999,2.0,3,1,2,-3.0,0.0,-3.0,-1.0,0.0,0.0,0
39,1,1494.26,73,1983.13,1984.64,3.96,C,mid,0.75,12,0.62,15,0.88,10,0.58,16,-999,2.0,1,3,2,0.0,-1.0,-3.0,0.0,3.0,-1.0,110
39,1,1494.26,74,1988.94,1990.46,3.28,A,right,0.19,52,0.56,17,0.8,12,-999.0,-999,-999,99.0,3,1,2,0.0,0.0,0.0,0.0,0.0,0.0,110
39,1,1494.26,75,1994.07,1995.59,3.82,C,right,0.72,12,0.65,15,0.85,11,0.55,17,-999,2.0,2,1,3,-3.0,-1.0,0.0,0.0,0.0,0.0,110
39,Estimation2,2086.57,E1,2086.63,2088.14,2.22,B,mid,0.75,11,0.65,15,0.85,-999,0.55,20,3,,3,2,1,,,,,,,110
39,Estimation2,2086.57,E2,2090.71,2092.22,3.81,B,mid,0.75,12,0.65,15,0.85,-999,0.55,20,1,2.0,3,2,1,,,,,,,100
39,Estimation2,2086.57,E3,2096.36,2097.87,2.17,A,mid,0.75,12,0.65,15,0.85,-999,0.55,28,3,,2,1,3,,,,,,,110
39,Estimation2,2086.57,E4,2100.37,2101.89,2.32,C,right,0.75,12,0.65,15,0.85,6,0.55,28,1,2.0,1,2,3,,,,,,,0
39,Estimation2,2086.57,E5,2104.55,2106.07,3.11,A,right,0.75,12,0.65,15,0.85,6,0.55,24,2,1.0,3,1,2,,,,,,,1
39,Estimation2,2086.57,E6,2109.52,2111.03,3.19,C,mid,0.75,12,0.65,15,0.85,8,0.55,24,1,2.0,1,3,2,,,,,,,1
39,Estimation2,2086.57,E7,2114.57,2116.08,2.14,C,mid,0.75,12,0.65,15,0.85,8,0.55,22,2,1.0,1,3,2,,,,,,,0
39,Estimation2,2086.57,E8,2118.57,2120.08,1.54,C,right,0.75,12,0.65,15,0.85,7,0.55,22,1,2.0,1,2,3,,,,,,,0
39,Estimation2,2086.57,E9,2121.96,2123.48,1.39,A,right,0.75,12,0.65,15,0.85,7,0.55,21,2,1.0,3,1,2,,,,,,,101
39,Estimation2,2086.57,E10,2125.21,2126.73,1.86,C,mid,0.75,12,0.65,15,0.85,8,0.55,21,1,2.0,3,1,2,,,,,,,10
39,Estimation2,2086.57,E11,2128.93,2130.45,2.62,A,right,0.75,12,0.65,15,0.85,8,0.55,21,2,1.0,3,2,1,,,,,,,110
39,2,2135.93,1,2135.99,2137.51,4.06,B,mid,0.72,12,0.62,14,0.7,11,0.6,13,-999,32.0,3,2,1,-3.0,0.0,-3.0,-1.0,0.0,0.0,110
39,2,2135.93,2,2141.91,2143.42,3.32,B,right,0.78,12,0.68,15,0.76,11,0.66,14,-999,31.0,2,3,1,3.0,0.0,3.0,0.0,0.0,0.0,110
39,2,2135.93,3,2147.07,2148.59,4.62,B,left,0.75,11,0.65,15,0.73,10,0.63,14,-999,31.0,3,1,2,0.0,-1.0,0.0,0.0,3.0,-1.0,11
39,2,2135.93,4,2153.55,2155.07,3.22,A,left,0.27,37,0.61,16,0.89,11,-999.0,-999,-999,99.0,1,2,3,0.0,0.0,0.0,0.0,0.0,0.0,101
39,2,2135.93,5,2158.62,2160.14,2.82,B,right,0.78,12,0.62,14,0.85,7,0.55,20,-999,1.0,1,3,2,3.0,0.0,-3.0,-1.0,0.0,-1.0,111
39,2,2135.93,6,2163.3,2164.82,3.04,C,right,0.75,12,0.62,14,0.88,8,0.58,21,-999,2.0,2,1,3,0.0,0.0,-3.0,-1.0,3.0,0.0,11
39,2,2135.93,7,2168.2,2169.72,4.15,C,right,0.72,12,0.65,14,0.7,11,0.63,13,-999,32.0,2,1,3,-3.0,0.0,0.0,-1.0,3.0,0.0,100
39,2,2135.93,8,2174.2,2175.71,2.84,B,mid,0.75,11,0.62,15,0.73,10,0.6,14,-999,32.0,3,2,1,0.0,-1.0,-3.0,0.0,-3.0,0.0,0
39,2,2135.93,9,2178.9,2180.41,5.7,A,mid,0.75,11,0.68,15,0.88,8,0.58,21,-999,1.0,2,3,1,0.0,-1.0,3.0,0.0,3.0,0.0,111
39,2,2135.93,10,2186.46,2187.98,3.62,C,left,0.72,11,0.65,15,0.88,7,0.58,20,-999,2.0,3,2,1,-3.0,-1.0,0.0,0.0,3.0,-1.0,0
39,2,2135.93,11,2191.94,2193.46,4.63,A,mid,0.78,11,0.68,14,0.76,10,0.66,13,-999,32.0,2,1,3,3.0,-1.0,3.0,-1.0,3.0,-1.0,1
39,2,2135.93,12,2198.44,2199.96,3.09,C,left,0.72,11,0.65,15,0.85,8,0.55,21,-999,2.0,3,2,1,-3.0,-1.0,0.0,0.0,0.0,0.0,10
39,2,2135.93,13,2203.39,2204.9,3.24,C,mid,0.72,11,0.68,15,0.88,8,0.58,21,-999,2.0,3,1,2,-3.0,-1.0,3.0,0.0,3.0,0.0,110
39,2,2135.93,14,2208.49,2210.0,3.39,B,left,0.72,12,0.62,15,0.7,11,0.6,14,-999,32.0,3,1,2,-3.0,0.0,-3.0,0.0,0.0,0.0,0
39,2,2135.93,15,2213.73,2215.25,7.3,A,mid,0.78,11,0.62,14,0.76,10,0.6,13,-999,32.0,2,1,3,3.0,-1.0,-3.0,-1.0,0.0,-1.0,110
39,2,2135.93,16,2222.88,2224.4,2.94,A,right,0.75,11,0.68,14,0.73,10,0.66,13,-999,32.0,3,1,2,0.0,-1.0,3.0,-1.0,0.0,0.0,110
39,2,2135.93,17,2227.68,2229.2,3.17,B,right,0.78,11,0.62,15,0.76,10,0.6,14,-999,32.0,1,3,2,3.0,-1.0,-3.0,0.0,-3.0,-1.0,0
39,2,2135.93,18,2232.7,2234.21,4.78,B,mid,0.78,12,0.65,15,0.76,11,0.63,14,-999,32.0,3,2,1,3.0,0.0,0.0,0.0,0.0,0.0,1
39,2,2135.93,19,2239.34,2240.86,3.12,B,right,0.78,11,0.68,15,0.88,8,0.58,21,-999,1.0,2,3,1,3.0,-1.0,3.0,0.0,3.0,0.0,11
39,2,2135.93,20,2244.33,2245.84,6.53,B,right,0.72,11,0.62,15,0.7,10,0.6,14,-999,32.0,1,3,2,-3.0,-1.0,-3.0,0.0,-3.0,-1.0,10
39,2,2135.93,21,2252.71,2254.22,4.92,A,right,0.32,31,0.6,16,0.78,12,-999.0,-999,-999,99.0,3,2,1,0.0,0.0,0.0,0.0,0.0,0.0,10
39,2,2135.93,22,2259.49,2261.0,4.82,B,left,0.72,11,0.65,15,0.7,10,0.63,14,-999,31.0,3,1,2,-3.0,-1.0,0.0,0.0,3.0,-1.0,11
39,2,2135.93,23,2266.17,2267.68,3.25,A,mid,0.28,35,0.67,14,0.78,12,-999.0,-999,-999,99.0,2,3,1,0.0,0.0,0.0,0.0,0.0,0.0,101
39,2,2135.93,24,2271.27,2272.78,9.28,B,mid,0.72,12,0.68,15,0.82,7,0.52,20,-999,1.0,3,2,1,-3.0,0.0,3.0,0.0,-3.0,-1.0,10
39,2,2135.93,25,2282.41,2283.93,2.74,B,mid,0.78,12,0.65,14,0.82,7,0.52,20,-999,1.0,3,2,1,3.0,0.0,0.0,-1.0,-3.0,-1.0,111
39,2,2135.93,26,2287.01,2288.53,4.49,A,right,0.24,41,0.37,27,0.76,13,-999.0,-999,-999,99.0,3,1,2,0.0,0.0,0.0,0.0,0.0,0.0,10
39,2,2135.93,27,2293.36,2294.88,6.23,A,mid,0.27,37,0.47,21,0.86,11,-999.0,-999,-999,99.0,2,3,1,0.0,0.0,0.0,0.0,0.0,0.0,100
39,2,2135.93,28,2301.44,2302.96,6.99,B,mid,0.75,12,0.65,15,0.82,7,0.52,20,-999,1.0,1,2,3,0.0,0.0,0.0,0.0,-3.0,-1.0,11
39,2,2135.93,29,2310.29,2311.8,4.55,C,left,0.72,12,0.62,14,0.85,8,0.55,21,-999,2.0,2,3,1,-3.0,0.0,-3.0,-1.0,0.0,0.0,1
39,2,2135.93,30,2316.7,2318.22,1.73,A,left,0.19,52,0.56,17,0.8,12,-999.0,-999,-999,99.0,1,3,2,0.0,0.0,0.0,0.0,0.0,0.0,0
39,2,2135.93,31,2320.28,2321.8,4.14,B,left,0.78,12,0.62,14,0.76,11,0.6,13,-999,31.0,3,1,2,3.0,0.0,-3.0,-1.0,-3.0,0.0,100
39,2,2135.93,32,2326.28,2327.8,2.44,B,mid,0.78,11,0.62,15,0.76,10,0.6,14,-999,31.0,1,2,3,3.0,-1.0,-3.0,0.0,0.0,0.0,0
39,2,2135.93,33,2330.58,2332.1,1.63,C,right,0.72,12,0.68,14,0.88,8,0.58,21,-999,2.0,2,1,3,-3.0,0.0,3.0,-1.0,3.0,0.0,10
39,2,2135.93,34,2334.06,2335.58,5.56,C,mid,0.78,12,0.68,15,0.82,8,0.52,21,-999,1.0,1,3,2,3.0,0.0,3.0,0.0,-3.0,0.0,111
39,2,2135.93,35,2341.48,2342.99,3.11,A,left,0.75,12,0.65,15,0.73,11,0.63,14,-999,31.0,1,2,3,0.0,0.0,0.0,0.0,0.0,0.0,10
39,2,2135.93,36,2346.44,2347.96,2.37,A,right,0.29,34,0.42,23,0.72,13,-999.0,-999,-999,99.0,3,2,1,0.0,0.0,0.0,0.0,0.0,0.0,100
39,2,2135.93,37,2350.67,2352.19,2.68,A,left,0.31,32,0.38,26,0.85,11,-999.0,-999,-999,99.0,1,2,3,0.0,0.0,0.0,0.0,0.0,0.0,101
39,2,2135.93,38,2394.49,2396.01,4.38,B,right,0.78,12,0.68,15,0.88,7,0.58,20,-999,1.0,1,3,2,3.0,0.0,3.0,0.0,3.0,-1.0,11
39,2,2135.93,39,2400.74,2402.26,3.74,B,right,0.75,11,0.62,15,0.88,8,0.58,21,-999,1.0,1,3,2,0.0,-1.0,-3.0,0.0,3.0,0.0,11
39,2,2135.93,40,2406.34,2407.86,2.95,A,right,0.75,12,0.65,15,0.73,11,0.63,14,-999,31.0,3,1,2,0.0,0.0,0.0,0.0,0.0,-1.0,111
39,2,2135.93,41,2411.14,2412.65,2.33,C,mid,0.72,12,0.62,14,0.85,8,0.55,21,-999,2.0,1,3,2,-3.0,0.0,-3.0,-1.0,0.0,0.0,111
39,2,2135.93,42,2415.32,2416.84,4.7,B,left,0.78,12,0.62,15,0.76,11,0.6,14,-999,32.0,2,1,3,3.0,0.0,-3.0,0.0,3.0,0.0,10
39,2,2135.93,43,2421.88,2423.4,3.26,B,mid,0.75,12,0.65,14,0.73,11,0.63,13,-999,31.0,1,2,3,0.0,0.0,0.0,-1.0,0.0,0.0,0
39,2,2135.93,44,2427.0,2428.52,4.73,C,mid,0.72,12,0.65,15,0.82,7,0.52,20,-999,2.0,3,1,2,-3.0,0.0,0.0,0.0,-3.0,-1.0,0
39,2,2135.93,45,2433.58,2435.1,2.16,C,right,0.78,12,0.65,14,0.82,7,0.52,20,-999,2.0,1,2,3,3.0,0.0,0.0,-1.0,-3.0,-1.0,100
39,2,2135.93,46,2437.6,2439.11,2.27,B,left,0.72,11,0.65,14,0.7,10,0.63,13,-999,31.0,2,1,3,-3.0,-1.0,0.0,-1.0,3.0,-1.0,101
39,2,2135.93,47,2441.73,2443.24,1.91,B,mid,0.78,12,0.65,14,0.82,8,0.52,21,-999,1.0,1,2,3,3.0,0.0,0.0,-1.0,-3.0,0.0,100
39,2,2135.93,48,2445.49,2447.01,1.41,B,right,0.72,12,0.62,15,0.7,11,0.6,14,-999,31.0,2,3,1,-3.0,0.0,-3.0,0.0,0.0,-1.0,11
39,2,2135.93,49,2448.76,2450.27,1.38,C,left,0.75,12,0.65,14,0.85,7,0.55,20,-999,2.0,3,2,1,0.0,0.0,0.0,-1.0,0.0,-1.0,11
39,2,2135.93,50,2451.99,2453.51,1.93,C,right,0.78,11,0.65,15,0.76,10,0.63,14,-999,32.0,2,1,3,3.0,-1.0,0.0,0.0,-3.0,-1.0,10
39,2,2135.93,51,2455.77,2457.29,2.18,A,left,0.72,12,0.68,15,0.82,7,0.52,20,-999,1.0,1,3,2,-3.0,0.0,3.0,0.0,-3.0,-1.0,10
39,2,2135.93,52,2459.81,2461.32,1.84,A,mid,0.19,52,0.59,16,0.81,12,-999.0,-999,-999,99.0,2,1,3,0.0,0.0,0.0,0.0,0.0,0.0,110
39,2,2135.93,53,2463.5,2465.02,2.4,B,right,0.78,11,0.68,15,0.85,7,0.55,20,-999,1.0,1,3,2,3.0,-1.0,3.0,0.0,0.0,-1.0,0
39,2,2135.93,54,2467.77,2469.29,1.59,C,right,0.75,11,0.68,14,0.85,7,0.55,20,-999,2.0,1,2,3,0.0,-1.0,3.0,-1.0,0.0,-1.0,110
39,2,2135.93,55,2471.22,2472.73,1.4,B,right,0.78,11,0.68,15,0.76,10,0.66,14,-999,31.0,2,3,1,3.0,-1.0,3.0,0.0,0.0,0.0,111
39,2,2135.93,56,2474.48,2476.0,2.05,C,right,0.78,12,0.65,15,0.76,11,0.63,14,-999,32.0,2,1,3,3.0,0.0,0.0,0.0,-3.0,-1.0,101
39,2,2135.93,57,2478.38,2479.9,1.99,B,mid,0.72,12,0.65,15,0.82,7,0.52,20,-999,1.0,3,2,1,-3.0,0.0,0.0,0.0,-3.0,-1.0,100
39,2,2135.93,58,2482.23,2483.75,2.23,C,right,0.72,11,0.62,14,0.88,8,0.58,21,-999,2.0,1,2,3,-3.0,-1.0,-3.0,-1.0,3.0,0.0,111
39,2,2135.93,59,2486.31,2487.83,2.01,C,right,0.72,12,0.62,15,0.7,11,0.6,14,-999,32.0,1,2,3,-3.0,0.0,-3.0,0.0,3.0,-1.0,1
39,2,2135.93,60,2490.18,2491.69,2.5,B,mid,0.72,11,0.65,15,0.7,10,0.63,14,-999,31.0,3,2,1,-3.0,-1.0,0.0,0.0,3.0,-1.0,0
39,2,2135.93,61,2494.53,2496.04,1.91,C,left,0.78,12,0.62,14,0.85,8,0.55,21,-999,2.0,2,3,1,3.0,0.0,-3.0,-1.0,0.0,0.0,10
39,2,2135.93,62,2498.29,2499.81,2.18,C,mid,0.72,12,0.68,14,0.7,11,0.66,13,-999,32.0,3,1,2,-3.0,0.0,3.0,-1.0,0.0,-1.0,111
39,2,2135.93,63,2502.32,2503.84,2.48,A,right,0.16,62,0.46,21,0.87,11,-999.0,-999,-999,99.0,3,2,1,0.0,0.0,0.0,0.0,0.0,0.0,110
39,2,2135.93,64,2506.66,2508.17,2.4,C,right,0.75,11,0.65,14,0.73,10,0.63,13,-999,32.0,1,2,3,0.0,-1.0,0.0,-1.0,3.0,0.0,100
39,2,2135.93,65,2510.92,2512.44,1.58,C,right,0.72,11,0.68,14,0.85,8,0.55,21,-999,2.0,1,2,3,-3.0,-1.0,3.0,-1.0,0.0,0.0,0
39,2,2135.93,66,2514.35,2515.87,3.01,B,mid,0.72,12,0.65,15,0.7,11,0.63,14,-999,31.0,1,2,3,-3.0,0.0,0.0,0.0,-3.0,-1.0,10
39,2,2135.93,67,2519.22,2520.74,1.96,B,left,0.78,11,0.62,15,0.85,7,0.55,20,-999,1.0,3,1,2,3.0,-1.0,-3.0,0.0,0.0,-1.0,0
39,2,2135.93,68,2523.03,2524.55,2.11,B,right,0.72,11,0.68,14,0.7,10,0.66,13,-999,31.0,2,3,1,-3.0,-1.0,3.0,-1.0,-3.0,0.0,110
39,2,2135.93,69,2527.0,2528.52,2.77,B,mid,0.75,12,0.65,15,0.85,8,0.55,21,-999,1.0,3,2,1,0.0,0.0,0.0,0.0,0.0,0.0,10
39,2,2135.93,70,2531.63,2533.15,1.56,C,left,0.75,11,0.62,15,0.88,7,0.58,20,-999,2.0,3,2,1,0.0,-1.0,-3.0,0.0,3.0,-1.0,110
39,2,2135.93,71,2535.05,2536.56,2.71,B,left,0.75,12,0.62,15,0.88,7,0.58,20,-999,1.0,3,1,2,0.0,0.0,-3.0,0.0,3.0,-1.0,10
39,2,2135.93,72,2539.61,2541.13,1.6,B,left,0.75,12,0.65,14,0.73,11,0.63,13,-999,31.0,2,1,3,0.0,0.0,0.0,-1.0,-3.0,-1.0,1
39,2,2135.93,73,2543.06,2544.58,1.85,A,right,0.32,31,0.48,20,0.85,11,-999.0,-999,-999,99.0,3,2,1,0.0,0.0,0.0,0.0,0.0,0.0,110
39,2,2135.93,74,2546.78,2548.29,1.89,B,right,0.75,11,0.68,14,0.73,10,0.66,13,-999,31.0,1,3,2,0.0,-1.0,3.0,-1.0,0.0,-1.0,110
39,2,2135.93,75,2550.53,2552.04,2.85,C,left,0.72,12,0.68,15,0.82,8,0.52,21,-999,2.0,3,2,1,-3.0,0.0,3.0,0.0,-3.0,0.0,110
39,Estimation3,2606.86,E1,2606.92,2608.44,1.82,B,mid,0.75,11,0.65,15,0.85,-999,0.55,20,3,,3,2,1,,,,,,,11
39,Estimation3,2606.86,E2,2610.59,2612.11,1.64,C,mid,0.75,12,0.65,15,0.85,-999,0.55,20,1,2.0,1,3,2,,,,,,,111
39,Estimation3,2606.86,E3,2614.09,2615.6,2.23,B,left,0.75,12,0.65,15,0.85,-999,0.55,18,3,,3,1,2,,,,,,,100
39,Estimation3,2606.86,E4,2618.17,2619.69,1.35,C,left,0.75,13,0.65,15,0.85,-999,0.55,18,1,2.0,3,2,1,,,,,,,11
39,Estimation3,2606.86,E5,2621.39,2622.9,2.77,B,mid,0.75,13,0.65,15,0.85,-999,0.55,17,3,,1,2,3,,,,,,,110
39,Estimation3,2606.86,E6,2626.02,2627.53,1.93,C,right,0.75,13,0.65,15,0.85,7,0.55,17,1,2.0,1,2,3,,,,,,,0
39,Estimation3,2606.86,E7,2629.8,2631.32,3.46,A,right,0.75,13,0.65,15,0.85,7,0.55,17,2,1.0,3,2,1,,,,,,,111
39,Estimation3,2606.86,E8,2635.11,2636.63,1.51,C,mid,0.75,13,0.65,15,0.85,9,0.55,17,1,2.0,3,1,2,,,,,,,101
39,Estimation3,2606.86,E9,2638.48,2640.0,5.86,A,left,0.75,13,0.65,15,0.85,9,0.55,17,2,1.0,1,2,3,,,,,,,11
39,Estimation3,2606.86,E10,2646.21,2647.73,1.22,C,left,0.75,13,0.65,15,0.85,10,0.55,17,1,2.0,3,2,1,,,,,,,0
39,Estimation3,2606.86,E11,2649.29,2650.81,1.28,A,left,0.75,13,0.65,15,0.85,10,0.55,17,2,1.0,1,3,2,,,,,,,0
39,Estimation3,2606.86,E12,2652.43,2653.94,1.44,B,right,0.75,13,0.65,15,0.85,11,0.55,17,1,2.0,2,3,1,,,,,,,10
39,Estimation3,2606.86,E13,2655.72,2657.24,1.52,C,right,0.75,13,0.65,15,0.85,11,0.55,17,2,1.0,2,1,3,,,,,,,11
39,3,2661.05,1,2661.12,2662.64,2.87,B,mid,0.78,13,0.68,15,0.76,12,0.66,14,-999,31.0,3,2,1,3.0,0.0,3.0,0.0,0.0,0.0,111
39,3,2661.05,2,2665.86,2667.37,1.71,B,right,0.78,13,0.68,15,0.82,11,0.52,17,-999,1.0,2,3,1,3.0,0.0,3.0,0.0,-3.0,0.0,111
39,3,2661.05,3,2669.42,2670.94,3.04,C,right,0.72,12,0.68,14,0.85,11,0.55,17,-999,2.0,2,1,3,-3.0,-1.0,3.0,-1.0,0.0,0.0,111
39,3,2661.05,4,2674.32,2675.84,3.64,B,right,0.78,12,0.68,15,0.88,11,0.58,17,-999,1.0,2,3,1,3.0,-1.0,3.0,0.0,3.0,0.0,111
39,3,2661.05,5,2679.82,2681.33,1.89,C,right,0.72,13,0.68,15,0.82,11,0.52,17,-999,2.0,1,2,3,-3.0,0.0,3.0,0.0,-3.0,0.0,11
39,3,2661.05,6,2683.57,2685.08,1.4,C,mid,0.72,13,0.65,15,0.82,10,0.52,16,-999,2.0,3,1,2,-3.0,0.0,0.0,0.0,-3.0,-1.0,111
39,3,2661.05,7,2686.83,2688.35,2.05,C,mid,0.75,13,0.65,14,0.85,10,0.55,16,-999,2.0,1,3,2,0.0,0.0,0.0,-1.0,0.0,-1.0,1
39,3,2661.05,8,2690.73,2692.25,2.31,A,right,0.72,13,0.65,14,0.7,12,0.63,13,-999,32.0,3,1,2,-3.0,0.0,0.0,-1.0,3.0,0.0,10
39,3,2661.05,9,2694.9,2696.41,2.43,B,mid,0.78,13,0.62,14,0.76,12,0.6,13,-999,31.0,1,2,3,3.0,0.0,-3.0,-1.0,-3.0,0.0,11
39,3,2661.05,10,2699.18,2700.69,1.57,C,mid,0.72,12,0.68,14,0.7,11,0.66,13,-999,31.0,1,3,2,-3.0,-1.0,3.0,-1.0,-3.0,0.0,10
39,3,2661.05,11,2702.61,2704.13,1.87,B,left,0.72,13,0.62,15,0.7,12,0.6,14,-999,31.0,3,1,2,-3.0,0.0,-3.0,0.0,0.0,-1.0,1
39,3,2661.05,12,2706.34,2707.86,2.32,B,right,0.72,13,0.68,15,0.82,10,0.52,16,-999,1.0,2,3,1,-3.0,0.0,3.0,0.0,-3.0,-1.0,101
39,3,2661.05,13,2710.52,2712.04,3.19,A,right,0.16,62,0.46,21,0.87,11,-999.0,-999,-999,99.0,3,2,1,0.0,0.0,0.0,0.0,0.0,0.0,110
39,3,2661.05,14,2715.57,2717.09,5.36,C,left,0.75,12,0.62,15,0.88,10,0.58,16,-999,2.0,3,2,1,0.0,-1.0,-3.0,0.0,3.0,-1.0,111
39,3,2661.05,15,2722.79,2724.3,3.35,B,mid,0.75,13,0.65,15,0.73,12,0.63,14,-999,31.0,1,2,3,0.0,0.0,0.0,0.0,0.0,-1.0,1
39,3,2661.05,16,2727.98,2729.5,1.42,C,right,0.78,13,0.62,14,0.85,11,0.55,17,-999,2.0,1,2,3,3.0,0.0,-3.0,-1.0,0.0,0.0,0
39,3,2661.05,17,2731.27,2732.78,3.25,B,right,0.72,13,0.62,15,0.7,12,0.6,14,-999,32.0,2,3,1,-3.0,0.0,-3.0,0.0,3.0,-1.0,111
39,3,2661.05,18,2736.38,2737.9,2.41,C,mid,0.72,12,0.65,15,0.88,10,0.58,16,-999,2.0,1,3,2,-3.0,-1.0,0.0,0.0,3.0,-1.0,11
39,3,2661.05,19,2740.65,2742.16,6.45,B,left,0.75,13,0.65,15,0.85,11,0.55,17,-999,1.0,2,1,3,0.0,0.0,0.0,0.0,0.0,0.0,11
39,3,2661.05,20,2748.94,2750.46,3.22,A,left,0.29,34,0.42,23,0.72,13,-999.0,-999,-999,99.0,1,2,3,0.0,0.0,0.0,0.0,0.0,0.0,110
39,3,2661.05,21,2754.01,2755.53,3.08,B,left,0.75,13,0.65,15,0.73,12,0.63,14,-999,31.0,3,1,2,0.0,0.0,0.0,0.0,0.0,0.0,10
39,3,2661.05,22,2758.94,2760.46,1.07,B,left,0.32,31,0.6,16,0.78,12,-999.0,-999,-999,99.0,2,1,3,0.0,0.0,0.0,0.0,0.0,0.0,100
39,3,2661.05,23,2761.86,2763.37,2.86,A,left,0.31,32,0.38,26,0.85,11,-999.0,-999,-999,99.0,1,2,3,0.0,0.0,0.0,0.0,0.0,0.0,11
39,3,2661.05,24,2766.57,2768.09,2.94,A,left,0.78,12,0.68,15,0.85,10,0.55,16,-999,1.0,1,3,2,3.0,-1.0,3.0,0.0,0.0,-1.0,111
39,3,2661.05,25,2771.37,2772.89,10.13,B,right,0.75,13,0.65,15,0.82,10,0.52,16,-999,1.0,2,3,1,0.0,0.0,0.0,0.0,-3.0,-1.0,11
39,3,2661.05,26,2783.35,2784.87,3.98,A,mid,0.24,41,0.37,27,0.76,13,-999.0,-999,-999,99.0,2,3,1,0.0,0.0,0.0,0.0,0.0,0.0,10
39,3,2661.05,27,2789.18,2790.7,3.01,A,right,0.32,31,0.48,20,0.85,11,-999.0,-999,-999,99.0,3,2,1,0.0,0.0,0.0,0.0,0.0,0.0,101
39,3,2661.05,28,2794.05,2795.56,2.66,A,right,0.78,13,0.65,14,0.82,10,0.52,16,-999,1.0,3,2,1,3.0,0.0,0.0,-1.0,-3.0,-1.0,111
39,3,2661.05,29,2798.56,2800.08,1.89,C,mid,0.78,13,0.65,14,0.82,10,0.52,16,-999,2.0,3,1,2,3.0,0.0,0.0,-1.0,-3.0,-1.0,10
39,3,2661.05,30,2802.31,2803.83,2.14,C,right,0.78,12,0.68,14,0.76,11,0.66,13,-999,32.0,2,1,3,3.0,-1.0,3.0,-1.0,3.0,-1.0,110
39,3,2661.05,31,2806.31,2807.83,1.47,A,left,0.19,52,0.59,16,0.81,12,-999.0,-999,-999,99.0,1,3,2,0.0,0.0,0.0,0.0,0.0,0.0,0
39,3,2661.05,32,2809.64,2811.16,4.7,B,right,0.78,12,0.62,15,0.76,11,0.6,14,-999,32.0,2,3,1,3.0,-1.0,-3.0,0.0,-3.0,-1.0,11
39,3,2661.05,33,2816.21,2817.72,6.69,A,left,0.78,13,0.65,14,0.82,11,0.52,17,-999,1.0,1,2,3,3.0,0.0,0.0,-1.0,-3.0,0.0,11
39,3,2661.05,34,2824.75,2826.27,3.16,A,right,0.72,13,0.62,14,0.85,11,0.55,17,-999,2.0,3,1,2,-3.0,0.0,-3.0,-1.0,0.0,0.0,110
39,3,2661.05,35,2829.77,2831.28,3.81,B,left,0.75,12,0.65,15,0.73,11,0.63,14,-999,31.0,3,1,2,0.0,-1.0,0.0,0.0,3.0,-1.0,10
39,3,2661.05,36,2835.43,2836.95,4.02,A,left,0.72,13,0.68,14,0.7,12,0.66,13,-999,32.0,1,3,2,-3.0,0.0,3.0,-1.0,0.0,-1.0,1
39,3,2661.05,37,2841.31,2842.83,5.24,A,mid,0.78,13,0.62,15,0.76,12,0.6,14,-999,32.0,2,1,3,3.0,0.0,-3.0,0.0,3.0,0.0,11
39,3,2661.05,38,2869.92,2871.44,6.51,B,right,0.72,13,0.65,15,0.7,12,0.63,14,-999,31.0,1,3,2,-3.0,0.0,0.0,0.0,-3.0,-1.0,110
39,3,2661.05,39,2878.29,2879.8,2.09,B,left,0.75,12,0.68,14,0.73,11,0.66,13,-999,31.0,2,1,3,0.0,-1.0,3.0,-1.0,0.0,-1.0,100
39,3,2661.05,40,2882.23,2883.75,2.85,A,mid,0.78,13,0.65,15,0.76,12,0.63,14,-999,32.0,2,3,1,3.0,0.0,0.0,0.0,0.0,0.0,10
39,3,2661.05,41,2886.95,2888.47,2.84,A,right,0.72,12,0.62,15,0.7,11,0.6,14,-999,32.0,3,2,1,-3.0,-1.0,-3.0,0.0,-3.0,-1.0,1
39,3,2661.05,42,2891.65,2893.16,3.64,A,mid,0.78,12,0.62,15,0.76,11,0.6,14,-999,31.0,2,1,3,3.0,-1.0,-3.0,0.0,0.0,0.0,10
39,3,2661.05,43,2897.15,2898.66,4.86,C,mid,0.72,12,0.68,15,0.88,11,0.58,17,-999,2.0,3,1,2,-3.0,-1.0,3.0,0.0,3.0,0.0,100
39,3,2661.05,44,2903.86,2905.38,2.18,A,left,0.27,37,0.47,21,0.86,11,-999.0,-999,-999,99.0,1,2,3,0.0,0.0,0.0,0.0,0.0,0.0,100
39,3,2661.05,45,2907.89,2909.41,2.66,A,mid,0.72,13,0.62,15,0.7,12,0.6,14,-999,32.0,2,3,1,-3.0,0.0,-3.0,0.0,0.0,0.0,0
39,3,2661.05,46,2912.41,2913.92,3.97,B,mid,0.78,12,0.65,15,0.76,11,0.63,14,-999,32.0,3,2,1,3.0,-1.0,0.0,0.0,-3.0,-1.0,11
39,3,2661.05,47,2918.24,2919.76,3.13,B,right,0.72,13,0.65,15,0.82,10,0.52,16,-999,1.0,1,3,2,-3.0,0.0,0.0,0.0,-3.0,-1.0,0
39,3,2661.05,48,2923.22,2924.74,3.17,B,left,0.75,12,0.68,14,0.85,10,0.55,16,-999,2.0,3,1,2,0.0,-1.0,3.0,-1.0,0.0,-1.0,110
39,3,2661.05,49,2928.25,2929.77,3.01,C,mid,0.72,12,0.65,15,0.85,11,0.55,17,-999,2.0,1,3,2,-3.0,-1.0,0.0,0.0,0.0,0.0,100
39,3,2661.05,50,2933.12,2934.63,1.25,B,right,0.78,12,0.62,14,0.76,11,0.6,13,-999,32.0,1,3,2,3.0,-1.0,-3.0,-1.0,0.0,-1.0,111
39,3,2661.05,51,2936.22,2937.73,2.05,B,right,0.72,13,0.62,14,0.7,12,0.6,13,-999,32.0,2,3,1,-3.0,0.0,-3.0,-1.0,0.0,0.0,111
39,3,2661.05,52,2940.13,2941.65,2.13,B,mid,0.75,13,0.62,14,0.88,11,0.58,17,-999,2.0,3,2,1,0.0,0.0,-3.0,-1.0,3.0,0.0,101
39,3,2661.05,53,2944.11,2945.63,4.37,C,left,0.72,13,0.68,14,0.88,11,0.58,17,-999,2.0,3,2,1,-3.0,0.0,3.0,-1.0,3.0,0.0,1
39,3,2661.05,54,2950.35,2951.86,3.21,A,right,0.28,35,0.67,14,0.78,12,-999.0,-999,-999,99.0,3,1,2,0.0,0.0,0.0,0.0,0.0,0.0,100
39,3,2661.05,55,2955.41,2956.93,1.87,C,right,0.78,13,0.62,14,0.85,10,0.55,16,-999,1.0,2,1,3,3.0,0.0,-3.0,-1.0,0.0,-1.0,0
39,3,2661.05,56,2959.14,2960.66,2.01,B,right,0.75,12,0.62,15,0.88,11,0.58,17,-999,1.0,2,3,1,0.0,-1.0,-3.0,0.0,3.0,0.0,111
39,3,2661.05,57,2963.01,2964.52,2.25,B,mid,0.78,13,0.68,15,0.88,10,0.58,16,-999,1.0,3,2,1,3.0,0.0,3.0,0.0,3.0,-1.0,111
39,3,2661.05,58,2967.12,2968.64,4.4,B,left,0.75,12,0.68,14,0.73,11,0.66,13,-999,32.0,2,1,3,0.0,-1.0,3.0,-1.0,0.0,0.0,101
39,3,2661.05,59,2973.39,2974.9,3.86,B,right,0.72,12,0.65,15,0.7,11,0.63,14,-999,31.0,2,3,1,-3.0,-1.0,0.0,0.0,3.0,-1.0,101
39,3,2661.05,60,2979.1,2980.62,2.32,A,left,0.75,13,0.62,15,0.88,10,0.58,16,-999,1.0,1,2,3,0.0,0.0,-3.0,0.0,3.0,-1.0,111
39,3,2661.05,61,2983.29,2984.8,2.99,A,right,0.72,13,0.68,15,0.82,10,0.52,16,-999,1.0,3,1,2,-3.0,0.0,3.0,0.0,-3.0,-1.0,100
39,3,2661.05,62,2988.13,2989.65,2.19,A,left,0.72,12,0.62,14,0.88,11,0.58,17,-999,2.0,1,3,2,-3.0,-1.0,-3.0,-1.0,3.0,0.0,101
39,3,2661.05,63,2992.18,2993.7,2.02,A,left,0.27,37,0.61,16,0.89,11,-999.0,-999,-999,99.0,1,3,2,0.0,0.0,0.0,0.0,0.0,0.0,100
39,3,2661.05,64,2996.06,2997.58,2.89,B,right,0.75,12,0.68,15,0.88,11,0.58,17,-999,1.0,2,3,1,0.0,-1.0,3.0,0.0,3.0,0.0,101
39,3,2661.05,65,3000.81,3002.33,5.33,B,right,0.75,12,0.62,15,0.73,11,0.6,14,-999,32.0,1,3,2,0.0,-1.0,-3.0,0.0,-3.0,0.0,111
39,3,2661.05,66,3008.01,3009.53,4.17,B,right,0.75,13,0.65,14,0.73,12,0.63,13,-999,31.0,2,3,1,0.0,0.0,0.0,-1.0,0.0,0.0,10
39,3,2661.05,67,3014.04,3015.56,1.73,C,left,0.72,13,0.62,14,0.85,11,0.55,17,-999,2.0,3,2,1,-3.0,0.0,-3.0,-1.0,0.0,0.0,0
39,3,2661.05,68,3017.62,3019.14,6.26,A,mid,0.72,12,0.65,15,0.7,11,0.63,14,-999,31.0,2,3,1,-3.0,-1.0,0.0,0.0,3.0,-1.0,111
39,3,2661.05,69,3025.74,3027.25,1.99,A,mid,0.19,52,0.56,17,0.8,12,-999.0,-999,-999,99.0,2,3,1,0.0,0.0,0.0,0.0,0.0,0.0,10
39,3,2661.05,70,3029.59,3031.1,1.72,A,left,0.75,13,0.65,14,0.73,12,0.63,13,-999,31.0,1,3,2,0.0,0.0,0.0,-1.0,-3.0,-1.0,11
39,3,2661.05,71,3033.17,3034.69,1.67,B,right,0.72,12,0.65,14,0.7,11,0.63,13,-999,31.0,1,3,2,-3.0,-1.0,0.0,-1.0,3.0,-1.0,0
39,3,2661.05,72,3036.7,3038.22,7.47,B,left,0.75,12,0.65,14,0.73,11,0.63,13,-999,32.0,2,1,3,0.0,-1.0,0.0,-1.0,3.0,0.0,110
39,3,2661.05,73,3046.03,3047.55,2.39,B,left,0.78,13,0.65,15,0.76,12,0.63,14,-999,32.0,2,1,3,3.0,0.0,0.0,0.0,-3.0,-1.0,111
39,3,2661.05,74,3050.28,3051.8,1.98,C,right,0.78,12,0.62,15,0.85,10,0.55,16,-999,1.0,2,1,3,3.0,-1.0,-3.0,0.0,0.0,-1.0,111
39,3,2661.05,75,3054.11,3055.63,3.91,A,right,0.78,12,0.68,15,0.76,11,0.66,14,-999,31.0,3,1,2,3.0,-1.0,3.0,0.0,0.0,0.0,0
