subject,block,block_onset,trial,fixation_cross_onset,trial_onset,rt,choice,key,pA,mA,pB,mB,pCA,mCA,pCB,mCB,missing,condition,position_A,position_B,position_C,noise_Ap,noise_Am,noise_Bp,noise_Bm,noise_Cp,noise_Cm,attribute_positions
38,Practice,1186.14,P1,1186.19,1187.7,4.2,B,left,0.78,7,0.62,17,0.85,3,0.55,24,-999,2.0,3,1,2,3.0,-2.0,-3.0,2.0,0.0,-1.0,1
38,Practice,1186.14,P2,1192.25,1193.77,6.27,C,right,0.72,7,0.62,16,0.88,5,0.58,26,-999,2.0,1,2,3,-3.0,-2.0,-3.0,1.0,3.0,1.0,10
38,Practice,1186.14,P3,1200.38,1201.9,5.79,B,right,0.75,11,0.68,13,0.85,4,0.55,25,-999,1.0,2,3,1,0.0,2.0,3.0,-2.0,0.0,0.0,110
38,Practice,1186.14,P4,1208.03,1209.55,5.82,B,left,0.75,9,0.65,15,0.88,5,0.58,26,-999,1.0,3,1,2,0.0,0.0,0.0,0.0,3.0,1.0,100
38,Practice,1186.14,P5,1215.71,1217.23,4.49,A,left,0.72,11,0.62,13,0.85,6,0.55,27,-999,1.0,1,3,2,-3.0,2.0,-3.0,-2.0,0.0,2.0,101
38,Practice,1186.14,P6,1222.06,1223.58,5.09,C,left,0.78,7,0.62,13,0.82,6,0.52,27,-999,2.0,2,3,1,3.0,-2.0,-3.0,-2.0,-3.0,2.0,110
38,Practice,1186.14,P7,1229.01,1230.52,5.63,B,left,0.75,7,0.65,17,0.85,5,0.55,26,-999,2.0,2,1,3,0.0,-2.0,0.0,2.0,0.0,1.0,111
38,Practice,1186.14,P8,1236.49,1238.01,5.17,C,mid,0.72,8,0.68,15,0.82,6,0.52,27,-999,2.0,3,1,2,-3.0,-1.0,3.0,0.0,-3.0,2.0,110
38,Practice,1186.14,P9,1243.52,1245.04,7.07,B,left,0.78,8,0.62,16,0.88,5,0.58,26,-999,1.0,3,1,2,3.0,-1.0,-3.0,1.0,3.0,1.0,1
38,Practice,1186.14,P10,1252.45,1253.97,7.83,C,right,0.75,10,0.65,16,0.82,2,0.52,23,-999,2.0,1,2,3,0.0,1.0,0.0,1.0,-3.0,-2.0,101
38,Practice,1186.14,P11,1262.13,1263.65,4.35,C,left,0.72,8,0.65,15,0.85,5,0.55,26,-999,2.0,2,3,1,-3.0,-1.0,0.0,0.0,0.0,1.0,0
38,Practice,1186.14,P12,1268.35,1269.86,3.67,B,right,0.72,8,0.68,15,0.85,5,0.55,26,-999,1.0,2,3,1,-3.0,-1.0,3.0,0.0,0.0,1.0,101
38,Practice,1186.14,P13,1273.88,1275.39,5.06,A,mid,0.78,11,0.68,16,0.88,5,0.58,26,-999,1.0,2,1,3,3.0,2.0,3.0,1.0,3.0,1.0,111
38,Practice,1186.14,P14,1280.79,1282.31,3.68,B,mid,0.72,11,0.62,17,0.82,3,0.52,24,-999,2.0,3,2,1,-3.0,2.0,-3.0,2.0,-3.0,-1.0,0
38,Practice,1186.14,P15,1286.32,1287.84,5.29,C,left,0.78,7,0.68,14,0.88,5,0.58,26,-999,2.0,2,3,1,3.0,-2.0,3.0,-1.0,3.0,1.0,10
38,Practice,1186.14,P16,1293.47,1294.99,14.29,C,right,0.78,7,0.65,13,0.82,2,0.52,23,-999,2.0,2,1,3,3.0,-2.0,0.0,-2.0,-3.0,-2.0,1
38,Practice,1186.14,P17,1309.62,1311.13,6.5,A,right,0.72,10,0.65,13,0.82,5,0.52,26,-999,2.0,3,2,1,-3.0,1.0,0.0,-2.0,-3.0,1.0,110
38,Practice,1186.14,P18,1317.96,1319.48,3.01,C,mid,0.78,7,0.68,13,0.88,2,0.58,23,-999,2.0,3,1,2,3.0,-2.0,3.0,-2.0,3.0,-2.0,10
38,Practice,1186.14,P19,1322.83,1324.34,5.46,A,right,0.78,11,0.62,15,0.85,4,0.55,25,-999,1.0,3,1,2,3.0,2.0,-3.0,0.0,0.0,0.0,110
38,Practice,1186.14,P20,1330.14,1331.66,5.12,B,right,0.72,7,0.65,14,0.88,4,0.58,25,-999,1.0,1,3,2,-3.0,-2.0,0.0,-1.0,3.0,0.0,11
38,Practice,1186.14,P21,1337.12,1338.64,5.97,B,left,0.78,9,0.65,16,0.85,2,0.55,23,-999,1.0,3,1,2,3.0,0.0,0.0,1.0,0.0,-2.0,0
38,Practice,1186.14,P22,1344.95,1346.47,6.15,A,left,0.72,9,0.62,15,0.85,2,0.55,23,-999,1.0,1,3,2,-3.0,0.0,-3.0,0.0,0.0,-2.0,10
38,Practice,1186.14,P23,1352.97,1354.48,5.8,B,left,0.72,7,0.65,13,0.88,3,0.58,24,-999,1.0,3,1,2,-3.0,-2.0,0.0,-2.0,3.0,-1.0,100
38,Practice,1186.14,P24,1360.63,1362.15,6.09,C,right,0.78,7,0.65,13,0.82,5,0.52,26,-999,2.0,2,1,3,3.0,-2.0,0.0,-2.0,-3.0,1.0,10
38,Practice,1186.14,P25,1368.58,1370.1,5.05,A,mid,0.78,10,0.68,13,0.85,4,0.55,25,-999,1.0,2,3,1,3.0,1.0,3.0,-2.0,0.0,0.0,111
38,Estimation1,1550.82,E1,1550.89,1552.4,4.02,B,left,0.75,11,0.65,15,0.85,-999,0.55,20,3,,2,1,3,,,,,,,11
38,Estimation1,1550.82,E2,1556.75,1558.27,4.69,C,mid,0.75,12,0.65,15,0.85,-999,0.55,20,1,2.0,1,3,2,,,,,,,101
38,Estimation1,1550.82,E3,1563.3,1564.82,4.97,B,left,0.75,12,0.65,15,0.85,-999,0.55,18,3,,3,1,2,,,,,,,100
38,Estimation1,1550.82,E4,1570.13,1571.65,2.56,C,left,0.75,13,0.65,15,0.85,-999,0.55,18,1,2.0,2,3,1,,,,,,,101
38,Estimation1,1550.82,E5,1574.55,1576.06,5.49,B,mid,0.75,13,0.65,15,0.85,-999,0.55,17,3,,1,2,3,,,,,,,1
38,Estimation1,1550.82,E6,1581.89,1583.41,4.17,C,right,0.75,13,0.65,15,0.85,7,0.55,17,1,2.0,2,1,3,,,,,,,101
38,Estimation1,1550.82,E7,1587.93,1589.44,3.11,A,left,0.75,13,0.65,15,0.85,7,0.55,17,2,1.0,1,2,3,,,,,,,100
38,Estimation1,1550.82,E8,1592.89,1594.41,4.33,B,right,0.75,13,0.65,15,0.85,9,0.55,17,1,2.0,2,3,1,,,,,,,100
38,Estimation1,1550.82,E9,1599.07,1600.59,3.54,A,right,0.75,13,0.65,15,0.85,9,0.55,17,2,1.0,3,2,1,,,,,,,100
38,Estimation1,1550.82,E10,1604.47,1605.99,3.58,B,right,0.75,13,0.65,15,0.85,10,0.55,17,1,2.0,1,3,2,,,,,,,0
38,Estimation1,1550.82,E11,1609.9,1611.42,4.35,A,left,0.75,13,0.65,15,0.85,10,0.55,17,2,1.0,1,2,3,,,,,,,101
38,Estimation1,1550.82,E12,1616.12,1617.63,2.98,C,right,0.75,13,0.65,15,0.85,11,0.55,17,1,2.0,2,1,3,,,,,,,110
38,Estimation1,1550.82,E13,1620.95,1622.46,5.24,A,mid,0.75,13,0.65,15,0.85,11,0.55,17,2,1.0,2,1,3,,,,,,,11
38,1,1630.67,1,1630.73,1632.24,8.53,B,right,0.31,32,0.38,26,0.85,11,-999.0,-999,-999,99.0,1,3,2,0.0,0.0,0.0,0.0,0.0,0.0,0
38,1,1630.67,2,1641.11,1642.62,5.72,B,right,0.78,13,0.68,15,0.82,11,0.52,17,-999,1.0,1,3,2,3.0,0.0,3.0,0.0,-3.0,0.0,0
38,1,1630.67,3,1648.69,1650.21,8.83,A,mid,0.72,13,0.62,14,0.7,12,0.6,13,-999,32.0,2,1,3,-3.0,0.0,-3.0,-1.0,0.0,0.0,111
38,1,1630.67,4,1659.37,1660.89,3.8,A,left,0.75,12,0.68,14,0.73,11,0.66,13,-999,31.0,1,3,2,0.0,-1.0,3.0,-1.0,0.0,-1.0,110
38,1,1630.67,5,1665.03,1666.55,5.56,A,left,0.27,37,0.61,16,0.89,11,-999.0,-999,-999,99.0,1,3,2,0.0,0.0,0.0,0.0,0.0,0.0,111
38,1,1630.67,6,1672.45,1673.96,3.8,A,right,0.32,31,0.6,16,0.78,12,-999.0,-999,-999,99.0,3,2,1,0.0,0.0,0.0,0.0,0.0,0.0,111
38,1,1630.67,7,1678.11,1679.63,2.35,B,right,0.78,12,0.68,15,0.88,11,0.58,17,-999,1.0,1,3,2,3.0,-1.0,3.0,0.0,3.0,0.0,101
38,1,1630.67,8,1682.31,1683.83,2.72,B,mid,0.72,13,0.62,15,0.7,12,0.6,14,-999,31.0,1,2,3,-3.0,0.0,-3.0,0.0,0.0,-1.0,101
38,1,1630.67,9,1686.88,1688.39,3.18,B,mid,0.75,13,0.65,14,0.73,12,0.63,13,-999,31.0,3,2,1,0.0,0.0,0.0,-1.0,0.0,0.0,1
38,1,1630.67,10,1691.91,1693.43,2.14,B,right,0.75,12,0.62,15,0.88,11,0.58,17,-999,1.0,1,3,2,0.0,-1.0,-3.0,0.0,3.0,0.0,100
38,1,1630.67,11,1695.91,1697.42,7.58,A,mid,0.78,13,0.68,15,0.76,12,0.66,14,-999,31.0,2,3,1,3.0,0.0,3.0,0.0,0.0,0.0,101
38,1,1630.67,12,1705.34,1706.85,4.35,A,right,0.27,37,0.47,21,0.86,11,-999.0,-999,-999,99.0,3,2,1,0.0,0.0,0.0,0.0,0.0,0.0,111
38,1,1630.67,13,1711.54,1713.05,7.81,B,right,0.78,13,0.65,15,0.76,12,0.63,14,-999,32.0,1,3,2,3.0,0.0,0.0,0.0,0.0,0.0,101
38,1,1630.67,14,1721.2,1722.72,5.33,A,right,0.72,13,0.65,14,0.7,12,0.63,13,-999,32.0,3,1,2,-3.0,0.0,0.0,-1.0,3.0,0.0,0
38,1,1630.67,15,1728.38,1729.9,3.31,B,left,0.72,13,0.68,15,0.82,10,0.52,16,-999,1.0,3,1,2,-3.0,0.0,3.0,0.0,-3.0,-1.0,0
38,1,1630.67,16,1733.55,1735.06,2.63,C,mid,0.72,13,0.68,15,0.82,11,0.52,17,-999,2.0,3,1,2,-3.0,0.0,3.0,0.0,-3.0,0.0,111
38,1,1630.67,17,1738.03,1739.54,7.59,B,left,0.72,12,0.65,15,0.88,10,0.58,16,-999,2.0,3,1,2,-3.0,-1.0,0.0,0.0,3.0,-1.0,10
38,1,1630.67,18,1747.47,1748.99,5.94,B,mid,0.72,12,0.62,15,0.7,11,0.6,14,-999,32.0,3,2,1,-3.0,-1.0,-3.0,0.0,-3.0,-1.0,110
38,1,1630.67,19,1755.27,1756.79,7.56,A,mid,0.78,12,0.68,15,0.85,10,0.55,16,-999,1.0,2,1,3,3.0,-1.0,3.0,0.0,0.0,-1.0,0
38,1,1630.67,20,1764.69,1766.2,8.01,A,mid,0.72,13,0.65,15,0.7,12,0.63,14,-999,31.0,2,1,3,-3.0,0.0,0.0,0.0,-3.0,-1.0,11
38,1,1630.67,21,1774.55,1776.07,7.17,A,mid,0.78,13,0.65,14,0.82,10,0.52,16,-999,1.0,2,1,3,3.0,0.0,0.0,-1.0,-3.0,-1.0,101
38,1,1630.67,22,1783.56,1785.08,18.41,A,mid,0.75,13,0.65,15,0.85,11,0.55,17,-999,1.0,2,1,3,0.0,0.0,0.0,0.0,0.0,0.0,1
38,1,1630.67,23,1803.82,1805.34,14.13,A,mid,0.72,13,0.68,15,0.82,10,0.52,16,-999,1.0,2,3,1,-3.0,0.0,3.0,0.0,-3.0,-1.0,11
38,1,1630.67,24,1819.82,1821.33,7.62,A,left,0.75,13,0.65,15,0.82,10,0.52,16,-999,1.0,1,2,3,0.0,0.0,0.0,0.0,-3.0,-1.0,100
38,1,1630.67,25,1829.3,1830.81,12.85,A,left,0.72,13,0.62,15,0.7,12,0.6,14,-999,32.0,1,3,2,-3.0,0.0,-3.0,0.0,0.0,0.0,11
38,1,1630.67,26,1844.01,1845.53,8.39,A,left,0.75,13,0.65,15,0.73,12,0.63,14,-999,31.0,1,2,3,0.0,0.0,0.0,0.0,0.0,-1.0,101
38,1,1630.67,27,1854.26,1855.77,11.81,A,left,0.72,12,0.62,14,0.88,11,0.58,17,-999,2.0,1,2,3,-3.0,-1.0,-3.0,-1.0,3.0,0.0,111
38,1,1630.67,28,1867.92,1869.44,5.13,A,mid,0.78,13,0.65,14,0.82,10,0.52,16,-999,2.0,2,1,3,3.0,0.0,0.0,-1.0,-3.0,-1.0,101
38,1,1630.67,29,1874.9,1876.42,9.33,A,mid,0.75,13,0.62,15,0.88,10,0.58,16,-999,1.0,2,3,1,0.0,0.0,-3.0,0.0,3.0,-1.0,100
38,1,1630.67,30,1886.1,1887.61,9.51,A,mid,0.72,13,0.65,15,0.82,10,0.52,16,-999,1.0,2,1,3,-3.0,0.0,0.0,0.0,-3.0,-1.0,0
38,1,1630.67,31,1897.46,1898.98,9.58,B,right,0.72,12,0.68,15,0.88,11,0.58,17,-999,2.0,2,3,1,-3.0,-1.0,3.0,0.0,3.0,0.0,110
38,1,1630.67,32,1908.89,1910.41,9.26,C,right,0.19,52,0.59,16,0.81,12,-999.0,-999,-999,99.0,1,2,3,0.0,0.0,0.0,0.0,0.0,0.0,10
38,1,1630.67,33,1920.0,1921.52,5.5,A,left,0.75,12,0.65,14,0.73,11,0.63,13,-999,32.0,1,3,2,0.0,-1.0,0.0,-1.0,3.0,0.0,100
38,1,1630.67,34,1927.37,1928.88,7.52,A,right,0.75,13,0.62,14,0.88,11,0.58,17,-999,2.0,3,1,2,0.0,0.0,-3.0,-1.0,3.0,0.0,110
38,1,1630.67,35,1936.73,1938.25,7.06,A,mid,0.72,13,0.65,15,0.82,10,0.52,16,-999,2.0,2,3,1,-3.0,0.0,0.0,0.0,-3.0,-1.0,0
38,1,1630.67,36,1945.64,1947.16,10.16,A,mid,0.29,34,0.42,23,0.72,13,-999.0,-999,-999,99.0,2,1,3,0.0,0.0,0.0,0.0,0.0,0.0,111
38,1,1630.67,37,1957.67,1959.19,7.41,B,mid,0.78,12,0.68,15,0.76,11,0.66,14,-999,31.0,1,2,3,3.0,-1.0,3.0,0.0,0.0,0.0,100
38,1,1630.67,38,1989.06,1990.58,5.07,A,left,0.72,13,0.62,15,0.7,12,0.6,14,-999,32.0,1,2,3,-3.0,0.0,-3.0,0.0,3.0,-1.0,110
38,1,1630.67,39,1995.98,1997.49,8.08,A,left,0.16,62,0.46,21,0.87,11,-999.0,-999,-999,99.0,1,2,3,0.0,0.0,0.0,0.0,0.0,0.0,11
38,1,1630.67,40,2005.91,2007.42,7.43,A,right,0.78,13,0.65,14,0.82,11,0.52,17,-999,1.0,3,1,2,3.0,0.0,0.0,-1.0,-3.0,0.0,110
38,1,1630.67,41,2015.19,2016.7,11.31,B,left,0.75,12,0.68,14,0.85,10,0.55,16,-999,2.0,2,1,3,0.0,-1.0,3.0,-1.0,0.0,-1.0,110
38,1,1630.67,42,2028.35,2029.87,10.75,B,right,0.72,13,0.68,14,0.88,11,0.58,17,-999,2.0,1,3,2,-3.0,0.0,3.0,-1.0,3.0,0.0,1
38,1,1630.67,43,2040.95,2042.46,10.48,B,mid,0.75,12,0.62,15,0.73,11,0.6,14,-999,32.0,1,2,3,0.0,-1.0,-3.0,0.0,-3.0,0.0,110
38,1,1630.67,44,2053.28,2054.79,21.08,B,left,0.72,13,0.62,14,0.85,11,0.55,17,-999,2.0,3,1,2,-3.0,0.0,-3.0,-1.0,0.0,0.0,10
38,1,1630.67,45,2076.22,2077.73,9.48,A,right,0.78,13,0.68,15,0.88,10,0.58,16,-999,1.0,3,2,1,3.0,0.0,3.0,0.0,3.0,-1.0,1
38,1,1630.67,46,2087.55,2089.06,7.68,A,mid,0.78,13,0.62,14,0.85,10,0.55,16,-999,1.0,2,1,3,3.0,0.0,-3.0,-1.0,0.0,-1.0,10
38,1,1630.67,47,2097.08,2098.59,4.67,A,mid,0.78,12,0.68,14,0.76,11,0.66,13,-999,32.0,2,3,1,3.0,-1.0,3.0,-1.0,3.0,-1.0,11
38,1,1630.67,48,2103.61,2105.13,5.32,B,mid,0.78,13,0.65,15,0.76,12,0.63,14,-999,32.0,1,2,3,3.0,0.0,0.0,0.0,-3.0,-1.0,10
38,1,1630.67,49,2110.79,2112.31,15.23,A,left,0.78,13,0.62,14,0.85,11,0.55,17,-999,2.0,1,2,3,3.0,0.0,-3.0,-1.0,0.0,0.0,11
38,1,1630.67,50,2127.87,2129.38,4.55,B,mid,0.72,12,0.65,14,0.7,11,0.63,13,-999,31.0,3,2,1,-3.0,-1.0,0.0,-1.0,3.0,-1.0,0
38,1,1630.67,51,2134.27,2135.78,9.31,B,left,0.72,12,0.68,14,0.85,11,0.55,17,-999,2.0,2,1,3,-3.0,-1.0,3.0,-1.0,0.0,0.0,1
38,1,1630.67,52,2145.43,2146.95,7.58,A,mid,0.78,12,0.62,15,0.76,11,0.6,14,-999,31.0,2,1,3,3.0,-1.0,-3.0,0.0,0.0,0.0,10
38,1,1630.67,53,2154.86,2156.38,9.52,A,left,0.24,41,0.37,27,0.76,13,-999.0,-999,-999,99.0,1,2,3,0.0,0.0,0.0,0.0,0.0,0.0,0
38,1,1630.67,54,2166.24,2167.76,15.71,A,mid,0.75,12,0.68,14,0.73,11,0.66,13,-999,32.0,2,1,3,0.0,-1.0,3.0,-1.0,0.0,0.0,100
38,1,1630.67,55,2183.8,2185.32,5.23,A,left,0.78,12,0.62,15,0.85,10,0.55,16,-999,1.0,1,2,3,3.0,-1.0,-3.0,0.0,0.0,-1.0,0
38,1,1630.67,56,2190.88,2192.4,20.42,A,mid,0.32,31,0.48,20,0.85,11,-999.0,-999,-999,99.0,2,3,1,0.0,0.0,0.0,0.0,0.0,0.0,10
38,1,1630.67,57,2213.16,2214.67,13.73,A,left,0.75,13,0.65,15,0.73,12,0.63,14,-999,31.0,1,2,3,0.0,0.0,0.0,0.0,0.0,0.0,101
38,1,1630.67,58,2228.74,2230.25,10.57,A,left,0.72,12,0.65,15,0.7,11,0.63,14,-999,31.0,1,3,2,-3.0,-1.0,0.0,0.0,3.0,-1.0,111
38,1,1630.67,59,2241.17,2242.68,5.86,A,mid,0.75,13,0.65,14,0.85,10,0.55,16,-999,2.0,2,1,3,0.0,0.0,0.0,-1.0,0.0,-1.0,100
38,1,1630.67,60,2248.88,2250.4,6.57,B,left,0.78,13,0.62,15,0.76,12,0.6,14,-999,32.0,3,1,2,3.0,0.0,-3.0,0.0,3.0,0.0,110
38,1,1630.67,61,2257.29,2258.81,18.37,A,right,0.75,12,0.65,15,0.73,11,0.63,14,-999,31.0,3,2,1,0.0,-1.0,0.0,0.0,3.0,-1.0,1
38,1,1630.67,62,2277.52,2279.04,8.17,B,left,0.75,13,0.65,14,0.73,12,0.63,13,-999,31.0,3,1,2,0.0,0.0,0.0,-1.0,-3.0,-1.0,111
38,1,1630.67,63,2287.53,2289.05,11.54,A,right,0.75,12,0.68,15,0.88,11,0.58,17,-999,1.0,3,2,1,0.0,-1.0,3.0,0.0,3.0,0.0,0
38,1,1630.67,64,2300.93,2302.45,9.01,B,mid,0.78,12,0.62,15,0.76,11,0.6,14,-999,32.0,1,2,3,3.0,-1.0,-3.0,0.0,-3.0,-1.0,0
38,1,1630.67,65,2311.79,2313.31,9.09,A,mid,0.78,12,0.62,14,0.76,11,0.6,13,-999,32.0,2,3,1,3.0,-1.0,-3.0,-1.0,0.0,-1.0,110
38,1,1630.67,66,2322.74,2324.26,7.07,A,mid,0.72,12,0.65,15,0.7,11,0.63,14,-999,31.0,2,1,3,-3.0,-1.0,0.0,0.0,3.0,-1.0,101
38,1,1630.67,67,2331.67,2333.19,4.61,A,mid,0.28,35,0.67,14,0.78,12,-999.0,-999,-999,99.0,2,1,3,0.0,0.0,0.0,0.0,0.0,0.0,111
38,1,1630.67,68,2338.13,2339.65,7.09,B,right,0.72,13,0.68,14,0.7,12,0.66,13,-999,32.0,1,3,2,-3.0,0.0,3.0,-1.0,0.0,-1.0,10
38,1,1630.67,69,2347.08,2348.6,6.89,B,mid,0.72,12,0.68,14,0.7,11,0.66,13,-999,31.0,1,2,3,-3.0,-1.0,3.0,-1.0,-3.0,0.0,111
38,1,1630.67,70,2355.83,2357.34,4.9,B,left,0.78,12,0.65,15,0.76,11,0.63,14,-999,32.0,3,1,2,3.0,-1.0,0.0,0.0,-3.0,-1.0,111
38,1,1630.67,71,2362.59,2364.11,12.71,B,mid,0.78,13,0.62,14,0.76,12,0.6,13,-999,31.0,3,2,1,3.0,0.0,-3.0,-1.0,-3.0,0.0,100
38,1,1630.67,72,2377.16,2378.67,8.76,A,right,0.72,13,0.62,14,0.85,11,0.55,17,-999,2.0,3,1,2,-3.0,0.0,-3.0,-1.0,0.0,0.0,0
38,1,1630.67,73,2387.77,2389.28,14.36,C,mid,0.75,12,0.62,15,0.88,10,0.58,16,-999,2.0,1,3,2,0.0,-1.0,-3.0,0.0,3.0,-1.0,110
38,1,1630.67,74,2403.98,2405.5,3.6,A,right,0.19,52,0.56,17,0.8,12,-999.0,-999,-999,99.0,3,1,2,0.0,0.0,0.0,0.0,0.0,0.0,110
38,1,1630.67,75,2409.43,2410.94,6.02,B,left,0.72,12,0.65,15,0.85,11,0.55,17,-999,2.0,2,1,3,-3.0,-1.0,0.0,0.0,0.0,0.0,110
38,Estimation2,2474.26,E1,2474.32,2475.84,4.12,B,mid,0.75,11,0.65,15,0.85,-999,0.55,20,3,,3,2,1,,,,,,,110
38,Estimation2,2474.26,E2,2480.29,2481.8,3.12,C,left,0.75,12,0.65,15,0.85,-999,0.55,20,1,2.0,3,2,1,,,,,,,100
38,Estimation2,2474.26,E3,2485.25,2486.77,1.82,B,left,0.75,12,0.65,15,0.85,-999,0.55,18,3,,2,1,3,,,,,,,110
38,Estimation2,2474.26,E4,2488.94,2490.45,2.62,C,right,0.75,13,0.65,15,0.85,-999,0.55,18,1,2.0,1,2,3,,,,,,,0
38,Estimation2,2474.26,E5,2493.42,2494.93,1.91,B,left,0.75,13,0.65,15,0.85,-999,0.55,17,3,,3,1,2,,,,,,,1
38,Estimation2,2474.26,E6,2497.18,2498.7,5.44,C,mid,0.75,13,0.65,15,0.85,7,0.55,17,1,2.0,1,3,2,,,,,,,1
38,Estimation2,2474.26,E7,2504.48,2506.0,1.64,A,left,0.75,13,0.65,15,0.85,7,0.55,17,2,1.0,1,3,2,,,,,,,0
38,Estimation2,2474.26,E8,2507.98,2509.5,1.56,C,right,0.75,13,0.65,15,0.85,9,0.55,17,1,2.0,1,2,3,,,,,,,0
38,Estimation2,2474.26,E9,2511.4,2512.91,1.66,A,right,0.75,13,0.65,15,0.85,9,0.55,17,2,1.0,3,1,2,,,,,,,101
38,Estimation2,2474.26,E10,2514.91,2516.43,3.59,C,mid,0.75,13,0.65,15,0.85,10,0.55,17,1,2.0,3,1,2,,,,,,,10
38,Estimation2,2474.26,E11,2520.36,2521.88,1.88,A,right,0.75,13,0.65,15,0.85,10,0.55,17,2,1.0,3,2,1,,,,,,,110
38,Estimation2,2474.26,E12,2524.09,2525.61,1.76,C,mid,0.75,13,0.65,15,0.85,11,0.55,17,1,2.0,3,1,2,,,,,,,110
38,Estimation2,2474.26,E13,2527.71,2529.22,1.7,A,left,0.75,13,0.65,15,0.85,11,0.55,17,2,1.0,1,2,3,,,,,,,101
38,2,2533.85,1,2533.92,2535.44,4.26,B,left,0.78,13,0.68,15,0.76,12,0.66,14,-999,31.0,3,1,2,3.0,0.0,3.0,0.0,0.0,0.0,11
38,2,2533.85,2,2540.04,2541.55,5.9,B,mid,0.72,12,0.68,14,0.85,11,0.55,17,-999,2.0,1,2,3,-3.0,-1.0,3.0,-1.0,0.0,0.0,101
38,2,2533.85,3,2547.8,2549.32,9.18,B,right,0.72,12,0.65,15,0.7,11,0.63,14,-999,31.0,1,3,2,-3.0,-1.0,0.0,0.0,3.0,-1.0,111
38,2,2533.85,4,2558.85,2560.36,2.33,A,mid,0.24,41,0.37,27,0.76,13,-999.0,-999,-999,99.0,2,1,3,0.0,0.0,0.0,0.0,0.0,0.0,11
38,2,2533.85,5,2563.05,2564.56,21.16,A,mid,0.78,13,0.65,15,0.76,12,0.63,14,-999,32.0,2,1,3,3.0,0.0,0.0,0.0,0.0,0.0,100
38,2,2533.85,6,2586.07,2587.59,6.02,A,right,0.72,13,0.68,15,0.82,10,0.52,16,-999,1.0,3,2,1,-3.0,0.0,3.0,0.0,-3.0,-1.0,0
38,2,2533.85,7,2593.95,2595.47,6.55,B,right,0.78,12,0.62,15,0.76,11,0.6,14,-999,31.0,2,3,1,3.0,-1.0,-3.0,0.0,0.0,0.0,111
38,2,2533.85,8,2602.37,2603.88,8.39,B,mid,0.72,13,0.62,15,0.7,12,0.6,14,-999,32.0,3,2,1,-3.0,0.0,-3.0,0.0,0.0,0.0,0
38,2,2533.85,9,2612.61,2614.13,4.3,B,left,0.78,13,0.68,15,0.88,10,0.58,16,-999,1.0,2,1,3,3.0,0.0,3.0,0.0,3.0,-1.0,1
38,2,2533.85,10,2618.78,2620.29,4.7,B,mid,0.72,13,0.68,15,0.82,10,0.52,16,-999,1.0,3,2,1,-3.0,0.0,3.0,0.0,-3.0,-1.0,10
38,2,2533.85,11,2625.34,2626.86,6.77,A,right,0.75,12,0.65,15,0.73,11,0.63,14,-999,31.0,3,1,2,0.0,-1.0,0.0,0.0,3.0,-1.0,110
38,2,2533.85,12,2633.97,2635.49,9.99,A,right,0.72,13,0.62,14,0.85,11,0.55,17,-999,2.0,3,1,2,-3.0,0.0,-3.0,-1.0,0.0,0.0,0
38,2,2533.85,13,2645.82,2647.33,10.14,A,mid,0.75,13,0.65,15,0.82,10,0.52,16,-999,1.0,2,1,3,0.0,0.0,0.0,0.0,-3.0,-1.0,110
38,2,2533.85,14,2657.81,2659.33,7.03,A,right,0.72,13,0.65,15,0.7,12,0.63,14,-999,31.0,3,1,2,-3.0,0.0,0.0,0.0,-3.0,-1.0,110
38,2,2533.85,15,2666.7,2668.21,7.0,B,right,0.72,12,0.68,14,0.7,11,0.66,13,-999,31.0,1,3,2,-3.0,-1.0,3.0,-1.0,-3.0,0.0,0
38,2,2533.85,16,2675.56,2677.08,4.64,A,right,0.75,13,0.65,15,0.73,12,0.63,14,-999,31.0,3,2,1,0.0,0.0,0.0,0.0,0.0,-1.0,1
38,2,2533.85,17,2682.06,2683.57,9.16,B,right,0.72,13,0.68,14,0.7,12,0.66,13,-999,32.0,2,3,1,-3.0,0.0,3.0,-1.0,0.0,-1.0,11
38,2,2533.85,18,2693.09,2694.6,4.67,B,right,0.75,12,0.68,14,0.73,11,0.66,13,-999,32.0,1,3,2,0.0,-1.0,3.0,-1.0,0.0,0.0,10
38,2,2533.85,19,2699.62,2701.13,5.11,A,right,0.78,12,0.68,15,0.85,10,0.55,16,-999,1.0,3,2,1,3.0,-1.0,3.0,0.0,0.0,-1.0,10
38,2,2533.85,20,2706.58,2708.1,8.33,A,right,0.27,37,0.47,21,0.86,11,-999.0,-999,-999,99.0,3,1,2,0.0,0.0,0.0,0.0,0.0,0.0,11
38,2,2533.85,21,2716.78,2718.3,7.39,A,mid,0.72,13,0.65,14,0.7,12,0.63,13,-999,32.0,2,3,1,-3.0,0.0,0.0,-1.0,3.0,0.0,101
38,2,2533.85,22,2726.03,2727.54,3.25,A,right,0.16,62,0.46,21,0.87,11,-999.0,-999,-999,99.0,3,2,1,0.0,0.0,0.0,0.0,0.0,0.0,10
38,2,2533.85,23,2731.14,2732.66,8.02,B,mid,0.78,12,0.62,15,0.76,11,0.6,14,-999,32.0,3,2,1,3.0,-1.0,-3.0,0.0,-3.0,-1.0,111
38,2,2533.85,24,2741.02,2742.54,5.51,B,left,0.72,12,0.68,15,0.88,11,0.58,17,-999,2.0,3,1,2,-3.0,-1.0,3.0,0.0,3.0,0.0,10
38,2,2533.85,25,2748.4,2749.92,5.03,A,mid,0.72,13,0.62,14,0.7,12,0.6,13,-999,32.0,2,3,1,-3.0,0.0,-3.0,-1.0,0.0,0.0,100
38,2,2533.85,26,2755.3,2756.82,13.72,B,mid,0.75,12,0.62,15,0.73,11,0.6,14,-999,32.0,1,2,3,0.0,-1.0,-3.0,0.0,-3.0,0.0,11
38,2,2533.85,27,2770.88,2772.39,4.13,A,mid,0.75,12,0.65,14,0.73,11,0.63,13,-999,32.0,2,3,1,0.0,-1.0,0.0,-1.0,3.0,0.0,1
38,2,2533.85,28,2776.88,2778.39,5.0,A,left,0.78,13,0.62,14,0.85,10,0.55,16,-999,1.0,1,3,2,3.0,0.0,-3.0,-1.0,0.0,-1.0,0
38,2,2533.85,29,2783.74,2785.26,10.62,B,left,0.78,12,0.65,15,0.76,11,0.63,14,-999,32.0,3,1,2,3.0,-1.0,0.0,0.0,-3.0,-1.0,100
38,2,2533.85,30,2796.22,2797.74,4.6,A,left,0.19,52,0.59,16,0.81,12,-999.0,-999,-999,99.0,1,2,3,0.0,0.0,0.0,0.0,0.0,0.0,0
38,2,2533.85,31,2802.68,2804.2,7.81,A,mid,0.75,12,0.62,15,0.88,10,0.58,16,-999,2.0,2,1,3,0.0,-1.0,-3.0,0.0,3.0,-1.0,10
38,2,2533.85,32,2812.37,2813.88,8.55,A,left,0.78,13,0.62,14,0.85,11,0.55,17,-999,2.0,1,3,2,3.0,0.0,-3.0,-1.0,0.0,0.0,111
38,2,2533.85,33,2822.78,2824.29,10.43,A,left,0.78,13,0.65,14,0.82,11,0.52,17,-999,1.0,1,2,3,3.0,0.0,0.0,-1.0,-3.0,0.0,10
38,2,2533.85,34,2835.07,2836.59,7.21,A,right,0.78,13,0.65,14,0.82,10,0.52,16,-999,1.0,3,2,1,3.0,0.0,0.0,-1.0,-3.0,-1.0,100
38,2,2533.85,35,2844.15,2845.67,12.47,B,mid,0.29,34,0.42,23,0.72,13,-999.0,-999,-999,99.0,1,2,3,0.0,0.0,0.0,0.0,0.0,0.0,101
38,2,2533.85,36,2858.48,2860.0,7.04,A,left,0.78,13,0.62,14,0.76,12,0.6,13,-999,31.0,1,3,2,3.0,0.0,-3.0,-1.0,-3.0,0.0,11
38,2,2533.85,37,2867.38,2868.9,7.0,A,left,0.72,13,0.62,15,0.7,12,0.6,14,-999,32.0,1,3,2,-3.0,0.0,-3.0,0.0,3.0,-1.0,11
38,2,2533.85,38,2897.19,2898.7,7.66,A,right,0.78,13,0.62,15,0.76,12,0.6,14,-999,32.0,3,1,2,3.0,0.0,-3.0,0.0,3.0,0.0,111
38,2,2533.85,39,2906.7,2908.22,3.33,B,right,0.72,13,0.65,15,0.82,10,0.52,16,-999,2.0,1,3,2,-3.0,0.0,0.0,0.0,-3.0,-1.0,111
38,2,2533.85,40,2911.88,2913.4,8.34,C,right,0.32,31,0.6,16,0.78,12,-999.0,-999,-999,99.0,2,1,3,0.0,0.0,0.0,0.0,0.0,0.0,10
38,2,2533.85,41,2922.08,2923.6,15.75,B,mid,0.75,12,0.62,15,0.88,11,0.58,17,-999,1.0,1,2,3,0.0,-1.0,-3.0,0.0,3.0,0.0,0
38,2,2533.85,42,2939.69,2941.21,5.43,B,left,0.72,12,0.65,15,0.7,11,0.63,14,-999,31.0,3,1,2,-3.0,-1.0,0.0,0.0,3.0,-1.0,0
38,2,2533.85,43,2946.97,2948.49,10.55,B,mid,0.72,12,0.62,14,0.88,11,0.58,17,-999,2.0,1,2,3,-3.0,-1.0,-3.0,-1.0,3.0,0.0,100
38,2,2533.85,44,2959.38,2960.9,4.85,A,mid,0.75,12,0.68,15,0.88,11,0.58,17,-999,1.0,2,1,3,0.0,-1.0,3.0,0.0,3.0,0.0,101
38,2,2533.85,45,2966.1,2967.62,9.92,A,left,0.75,13,0.65,14,0.85,10,0.55,16,-999,2.0,1,2,3,0.0,0.0,0.0,-1.0,0.0,-1.0,100
38,2,2533.85,46,2977.88,2979.39,11.86,B,right,0.72,12,0.65,15,0.85,11,0.55,17,-999,2.0,2,3,1,-3.0,-1.0,0.0,0.0,0.0,0.0,11
38,2,2533.85,47,2991.59,2993.11,9.05,B,mid,0.75,12,0.68,14,0.85,10,0.55,16,-999,2.0,3,2,1,0.0,-1.0,3.0,-1.0,0.0,-1.0,11
38,2,2533.85,48,3002.5,3004.02,9.55,A,mid,0.78,12,0.62,15,0.85,10,0.55,16,-999,1.0,2,1,3,3.0,-1.0,-3.0,0.0,0.0,-1.0,10
38,2,2533.85,49,3013.92,3015.43,5.0,B,right,0.78,12,0.68,15,0.76,11,0.66,14,-999,31.0,1,3,2,3.0,-1.0,3.0,0.0,0.0,0.0,10
38,2,2533.85,50,3020.78,3022.3,7.76,A,mid,0.78,12,0.62,14,0.76,11,0.6,13,-999,32.0,2,1,3,3.0,-1.0,-3.0,-1.0,0.0,-1.0,110
38,2,2533.85,51,3030.39,3031.91,9.16,B,right,0.31,32,0.38,26,0.85,11,-999.0,-999,-999,99.0,1,3,2,0.0,0.0,0.0,0.0,0.0,0.0,0
38,2,2533.85,52,3041.42,3042.94,14.09,B,mid,0.78,12,0.68,15,0.88,11,0.58,17,-999,1.0,1,2,3,3.0,-1.0,3.0,0.0,3.0,0.0,110
38,2,2533.85,53,3057.39,3058.9,2.44,B,right,0.75,12,0.68,14,0.73,11,0.66,13,-999,31.0,2,3,1,0.0,-1.0,3.0,-1.0,0.0,-1.0,111
38,2,2533.85,54,3061.68,3063.2,3.54,A,mid,0.19,52,0.56,17,0.8,12,-999.0,-999,-999,99.0,2,1,3,0.0,0.0,0.0,0.0,0.0,0.0,101
38,2,2533.85,55,3067.08,3068.6,8.0,B,mid,0.75,13,0.65,15,0.73,12,0.63,14,-999,31.0,3,2,1,0.0,0.0,0.0,0.0,0.0,0.0,100
38,2,2533.85,56,3076.95,3078.46,7.11,A,left,0.75,13,0.62,14,0.88,11,0.58,17,-999,2.0,1,2,3,0.0,0.0,-3.0,-1.0,3.0,0.0,111
38,2,2533.85,57,3085.93,3087.44,8.57,A,left,0.75,13,0.65,14,0.73,12,0.63,13,-999,31.0,1,2,3,0.0,0.0,0.0,-1.0,0.0,0.0,1
38,2,2533.85,58,3096.36,3097.87,7.3,A,right,0.78,13,0.65,14,0.82,10,0.52,16,-999,2.0,3,2,1,3.0,0.0,0.0,-1.0,-3.0,-1.0,0
38,2,2533.85,59,3105.52,3107.04,12.68,A,mid,0.27,37,0.61,16,0.89,11,-999.0,-999,-999,99.0,2,3,1,0.0,0.0,0.0,0.0,0.0,0.0,10
38,2,2533.85,60,3120.07,3121.58,6.67,A,right,0.78,13,0.68,15,0.82,11,0.52,17,-999,1.0,3,1,2,3.0,0.0,3.0,0.0,-3.0,0.0,111
38,2,2533.85,61,3128.6,3130.11,7.62,A,right,0.72,13,0.62,15,0.7,12,0.6,14,-999,31.0,3,2,1,-3.0,0.0,-3.0,0.0,0.0,-1.0,110
38,2,2533.85,62,3138.08,3139.59,5.13,A,left,0.78,13,0.65,15,0.76,12,0.63,14,-999,32.0,1,2,3,3.0,0.0,0.0,0.0,-3.0,-1.0,100
38,2,2533.85,63,3145.06,3146.57,2.59,A,left,0.28,35,0.67,14,0.78,12,-999.0,-999,-999,99.0,1,2,3,0.0,0.0,0.0,0.0,0.0,0.0,0
38,2,2533.85,64,3149.54,3151.06,8.59,A,left,0.72,12,0.65,14,0.7,11,0.63,13,-999,31.0,1,2,3,-3.0,-1.0,0.0,-1.0,3.0,-1.0,10
38,2,2533.85,65,3159.99,3161.5,15.84,A,right,0.72,13,0.62,14,0.85,11,0.55,17,-999,2.0,3,1,2,-3.0,0.0,-3.0,-1.0,0.0,0.0,0
38,2,2533.85,66,3177.68,3179.2,19.04,B,right,0.72,13,0.68,15,0.82,11,0.52,17,-999,2.0,2,3,1,-3.0,0.0,3.0,0.0,-3.0,0.0,110
38,2,2533.85,67,3198.59,3200.11,6.31,A,right,0.75,13,0.65,14,0.73,12,0.63,13,-999,31.0,3,2,1,0.0,0.0,0.0,-1.0,-3.0,-1.0,10
38,2,2533.85,68,3206.75,3208.27,10.13,A,right,0.75,13,0.62,15,0.88,10,0.58,16,-999,1.0,3,2,1,0.0,0.0,-3.0,0.0,3.0,-1.0,110
38,2,2533.85,69,3218.75,3220.27,12.42,A,right,0.72,13,0.65,15,0.82,10,0.52,16,-999,1.0,3,1,2,-3.0,0.0,0.0,0.0,-3.0,-1.0,10
38,2,2533.85,70,3233.03,3234.55,14.41,A,mid,0.72,13,0.68,14,0.88,11,0.58,17,-999,2.0,2,1,3,-3.0,0.0,3.0,-1.0,3.0,0.0,1
38,2,2533.85,71,3249.29,3250.81,12.16,A,right,0.78,12,0.68,14,0.76,11,0.66,13,-999,32.0,3,2,1,3.0,-1.0,3.0,-1.0,3.0,-1.0,110
38,2,2533.85,72,3263.3,3264.82,7.46,B,right,0.72,12,0.62,15,0.7,11,0.6,14,-999,32.0,1,3,2,-3.0,-1.0,-3.0,0.0,-3.0,-1.0,110
38,2,2533.85,73,3272.62,3274.13,6.27,B,mid,0.72,12,0.65,15,0.88,10,0.58,16,-999,2.0,3,2,1,-3.0,-1.0,0.0,0.0,3.0,-1.0,110
38,2,2533.85,74,3280.75,3282.26,9.44,A,right,0.75,13,0.65,15,0.85,11,0.55,17,-999,1.0,3,2,1,0.0,0.0,0.0,0.0,0.0,0.0,11
38,2,2533.85,75,3292.04,3293.56,2.17,A,left,0.32,31,0.48,20,0.85,11,-999.0,-999,-999,99.0,1,3,2,0.0,0.0,0.0,0.0,0.0,0.0,111
38,Estimation3,3353.2,E1,3353.26,3354.77,3.4,B,left,0.75,11,0.65,15,0.85,-999,0.55,20,3,,3,1,2,,,,,,,100
38,Estimation3,3353.2,E2,3358.51,3360.02,2.07,C,left,0.75,12,0.65,15,0.85,-999,0.55,20,1,2.0,3,2,1,,,,,,,11
38,Estimation3,3353.2,E3,3362.42,3363.94,1.97,B,mid,0.75,12,0.65,15,0.85,-999,0.55,18,3,,1,2,3,,,,,,,110
38,Estimation3,3353.2,E4,3366.25,3367.77,1.63,C,right,0.75,13,0.65,15,0.85,-999,0.55,18,1,2.0,1,2,3,,,,,,,0
38,Estimation3,3353.2,E5,3369.74,3371.25,3.97,A,right,0.75,13,0.65,15,0.85,-999,0.55,17,3,,3,2,1,,,,,,,111
38,Estimation3,3353.2,E6,3375.57,3377.08,3.0,C,mid,0.75,13,0.65,15,0.85,7,0.55,17,1,2.0,3,1,2,,,,,,,101
38,Estimation3,3353.2,E7,3380.43,3381.95,2.58,A,left,0.75,13,0.65,15,0.85,7,0.55,17,2,1.0,1,2,3,,,,,,,11
38,Estimation3,3353.2,E8,3384.86,3386.38,3.11,B,mid,0.75,13,0.65,15,0.85,9,0.55,17,1,2.0,3,2,1,,,,,,,0
38,Estimation3,3353.2,E9,3389.83,3391.35,2.45,A,left,0.75,13,0.65,15,0.85,9,0.55,17,2,1.0,1,3,2,,,,,,,0
38,Estimation3,3353.2,E10,3394.14,3395.66,6.04,B,right,0.75,13,0.65,15,0.85,10,0.55,17,1,2.0,2,3,1,,,,,,,10
38,Estimation3,3353.2,E11,3402.04,3403.56,5.7,A,mid,0.75,13,0.65,15,0.85,10,0.55,17,2,1.0,2,1,3,,,,,,,11
38,Estimation3,3353.2,E12,3409.61,3411.12,5.41,B,right,0.75,13,0.65,15,0.85,11,0.55,17,1,2.0,1,3,2,,,,,,,100
38,Estimation3,3353.2,E13,3416.87,3418.39,4.02,C,left,0.75,13,0.65,15,0.85,11,0.55,17,2,1.0,3,2,1,,,,,,,101
38,3,3426.51,1,3426.58,3428.1,5.65,B,left,0.72,12,0.68,14,0.85,11,0.55,17,-999,2.0,2,1,3,-3.0,-1.0,3.0,-1.0,0.0,0.0,111
38,3,3426.51,2,3434.08,3435.6,3.07,A,mid,0.78,13,0.65,14,0.82,10,0.52,16,-999,1.0,2,3,1,3.0,0.0,0.0,-1.0,-3.0,-1.0,111
38,3,3426.51,3,3439.01,3440.53,5.51,B,mid,0.72,13,0.62,14,0.85,11,0.55,17,-999,2.0,1,2,3,-3.0,0.0,-3.0,-1.0,0.0,0.0,11
38,3,3426.51,4,3446.38,3447.89,7.5,A,right,0.78,12,0.68,15,0.85,10,0.55,16,-999,1.0,3,1,2,3.0,-1.0,3.0,0.0,0.0,-1.0,111
38,3,3426.51,5,3455.74,3457.26,4.11,A,left,0.75,13,0.65,15,0.85,11,0.55,17,-999,1.0,1,3,2,0.0,0.0,0.0,0.0,0.0,0.0,1
38,3,3426.51,6,3461.71,3463.22,6.59,B,left,0.75,12,0.68,15,0.88,11,0.58,17,-999,1.0,3,1,2,0.0,-1.0,3.0,0.0,3.0,0.0,10
38,3,3426.51,7,3470.15,3471.67,5.82,A,left,0.78,12,0.62,15,0.85,10,0.55,16,-999,1.0,1,2,3,3.0,-1.0,-3.0,0.0,0.0,-1.0,11
38,3,3426.51,8,3477.83,3479.35,4.76,A,left,0.78,12,0.62,15,0.76,11,0.6,14,-999,31.0,1,3,2,3.0,-1.0,-3.0,0.0,0.0,0.0,10
38,3,3426.51,9,3484.45,3485.96,4.64,A,right,0.19,52,0.56,17,0.8,12,-999.0,-999,-999,99.0,3,1,2,0.0,0.0,0.0,0.0,0.0,0.0,1
38,3,3426.51,10,3490.95,3492.46,6.24,A,mid,0.75,12,0.62,15,0.88,10,0.58,16,-999,2.0,2,3,1,0.0,-1.0,-3.0,0.0,3.0,-1.0,101
38,3,3426.51,11,3499.04,3500.56,5.63,A,right,0.75,13,0.65,14,0.73,12,0.63,13,-999,31.0,3,2,1,0.0,0.0,0.0,-1.0,-3.0,-1.0,110
38,3,3426.51,12,3506.53,3508.04,5.51,B,mid,0.75,12,0.68,14,0.85,10,0.55,16,-999,2.0,3,2,1,0.0,-1.0,3.0,-1.0,0.0,-1.0,111
38,3,3426.51,13,3513.89,3515.41,8.15,A,left,0.78,13,0.65,15,0.76,12,0.63,14,-999,32.0,1,2,3,3.0,0.0,0.0,0.0,-3.0,-1.0,1
38,3,3426.51,14,3523.89,3525.4,5.43,A,left,0.24,41,0.37,27,0.76,13,-999.0,-999,-999,99.0,1,2,3,0.0,0.0,0.0,0.0,0.0,0.0,0
38,3,3426.51,15,3531.17,3532.68,6.08,A,mid,0.72,13,0.65,15,0.82,10,0.52,16,-999,1.0,2,3,1,-3.0,0.0,0.0,0.0,-3.0,-1.0,111
38,3,3426.51,16,3539.1,3540.61,11.76,B,right,0.29,34,0.42,23,0.72,13,-999.0,-999,-999,99.0,1,3,2,0.0,0.0,0.0,0.0,0.0,0.0,11
38,3,3426.51,17,3552.71,3554.23,4.58,B,left,0.72,13,0.65,15,0.82,10,0.52,16,-999,2.0,2,1,3,-3.0,0.0,0.0,0.0,-3.0,-1.0,11
38,3,3426.51,18,3559.14,3560.66,8.45,A,left,0.78,13,0.68,15,0.82,11,0.52,17,-999,1.0,1,2,3,3.0,0.0,3.0,0.0,-3.0,0.0,110
38,3,3426.51,19,3569.44,3570.95,6.01,A,right,0.75,13,0.65,14,0.73,12,0.63,13,-999,31.0,3,1,2,0.0,0.0,0.0,-1.0,0.0,0.0,10
38,3,3426.51,20,3577.3,3578.82,3.75,A,mid,0.72,13,0.68,15,0.82,10,0.52,16,-999,1.0,2,1,3,-3.0,0.0,3.0,0.0,-3.0,-1.0,100
38,3,3426.51,21,3582.92,3584.43,6.35,A,left,0.75,13,0.62,15,0.88,10,0.58,16,-999,1.0,1,2,3,0.0,0.0,-3.0,0.0,3.0,-1.0,11
38,3,3426.51,22,3591.11,3592.63,10.2,A,left,0.72,13,0.62,15,0.7,12,0.6,14,-999,32.0,1,3,2,-3.0,0.0,-3.0,0.0,3.0,-1.0,111
38,3,3426.51,23,3603.16,3604.68,1.7,A,mid,0.16,62,0.46,21,0.87,11,-999.0,-999,-999,99.0,2,3,1,0.0,0.0,0.0,0.0,0.0,0.0,11
38,3,3426.51,24,3606.71,3608.23,8.98,A,mid,0.27,37,0.47,21,0.86,11,-999.0,-999,-999,99.0,2,3,1,0.0,0.0,0.0,0.0,0.0,0.0,10
38,3,3426.51,25,3617.54,3619.06,7.4,A,right,0.78,13,0.62,14,0.76,12,0.6,13,-999,31.0,3,2,1,3.0,0.0,-3.0,-1.0,-3.0,0.0,101
38,3,3426.51,26,3626.79,3628.3,2.21,A,right,0.19,52,0.59,16,0.81,12,-999.0,-999,-999,99.0,3,2,1,0.0,0.0,0.0,0.0,0.0,0.0,111
38,3,3426.51,27,3630.85,3632.37,8.1,A,right,0.78,12,0.62,15,0.76,11,0.6,14,-999,32.0,3,1,2,3.0,-1.0,-3.0,0.0,-3.0,-1.0,10
38,3,3426.51,28,3640.8,3642.31,8.89,B,left,0.31,32,0.38,26,0.85,11,-999.0,-999,-999,99.0,2,1,3,0.0,0.0,0.0,0.0,0.0,0.0,110
38,3,3426.51,29,3651.55,3653.06,4.44,A,left,0.78,13,0.62,15,0.76,12,0.6,14,-999,32.0,1,3,2,3.0,0.0,-3.0,0.0,3.0,0.0,0
38,3,3426.51,30,3657.84,3659.36,1.79,A,mid,0.28,35,0.67,14,0.78,12,-999.0,-999,-999,99.0,2,3,1,0.0,0.0,0.0,0.0,0.0,0.0,11
38,3,3426.51,31,3661.49,3663.01,5.8,A,left,0.75,12,0.62,15,0.73,11,0.6,14,-999,32.0,1,2,3,0.0,-1.0,-3.0,0.0,-3.0,0.0,11
38,3,3426.51,32,3669.16,3670.67,9.15,A,right,0.72,12,0.62,15,0.7,11,0.6,14,-999,32.0,3,1,2,-3.0,-1.0,-3.0,0.0,-3.0,-1.0,110
38,3,3426.51,33,3680.17,3681.69,11.54,B,left,0.78,12,0.68,14,0.76,11,0.66,13,-999,32.0,3,1,2,3.0,-1.0,3.0,-1.0,3.0,-1.0,10
38,3,3426.51,34,3693.56,3695.08,18.16,A,left,0.32,31,0.6,16,0.78,12,-999.0,-999,-999,99.0,1,3,2,0.0,0.0,0.0,0.0,0.0,0.0,1
38,3,3426.51,35,3713.58,3715.09,2.61,A,mid,0.32,31,0.48,20,0.85,11,-999.0,-999,-999,99.0,2,1,3,0.0,0.0,0.0,0.0,0.0,0.0,11
38,3,3426.51,36,3718.04,3719.56,8.34,A,left,0.75,13,0.65,14,0.85,10,0.55,16,-999,2.0,1,3,2,0.0,0.0,0.0,-1.0,0.0,-1.0,110
38,3,3426.51,37,3728.24,3729.75,6.99,A,mid,0.75,12,0.65,15,0.73,11,0.63,14,-999,31.0,2,1,3,0.0,-1.0,0.0,0.0,3.0,-1.0,100
38,3,3426.51,38,3750.81,3752.33,7.99,A,mid,0.78,12,0.62,14,0.76,11,0.6,13,-999,32.0,2,3,1,3.0,-1.0,-3.0,-1.0,0.0,-1.0,10
38,3,3426.51,39,3760.66,3762.18,7.0,B,mid,0.72,13,0.68,14,0.7,12,0.66,13,-999,32.0,3,2,1,-3.0,0.0,3.0,-1.0,0.0,-1.0,1
38,3,3426.51,40,3769.51,3771.02,1.07,A,mid,0.27,37,0.61,16,0.89,11,-999.0,-999,-999,99.0,2,1,3,0.0,0.0,0.0,0.0,0.0,0.0,10
38,3,3426.51,41,3772.44,3773.96,7.14,C,mid,0.75,12,0.62,15,0.88,11,0.58,17,-999,1.0,3,1,2,0.0,-1.0,-3.0,0.0,3.0,0.0,100
38,3,3426.51,42,3781.44,3782.95,7.68,A,left,0.72,12,0.65,15,0.7,11,0.63,14,-999,31.0,1,2,3,-3.0,-1.0,0.0,0.0,3.0,-1.0,100
38,3,3426.51,43,3790.97,3792.48,4.73,A,mid,0.72,13,0.62,15,0.7,12,0.6,14,-999,31.0,2,3,1,-3.0,0.0,-3.0,0.0,0.0,-1.0,0
38,3,3426.51,44,3797.55,3799.06,5.31,A,right,0.72,12,0.65,15,0.7,11,0.63,14,-999,31.0,3,2,1,-3.0,-1.0,0.0,0.0,3.0,-1.0,11
38,3,3426.51,45,3804.71,3806.23,4.78,B,right,0.72,13,0.68,15,0.82,11,0.52,17,-999,2.0,1,3,2,-3.0,0.0,3.0,0.0,-3.0,0.0,0
38,3,3426.51,46,3811.34,3812.86,16.64,B,left,0.72,12,0.65,15,0.88,10,0.58,16,-999,2.0,3,1,2,-3.0,-1.0,0.0,0.0,3.0,-1.0,110
38,3,3426.51,47,3829.84,3831.35,11.9,B,right,0.75,12,0.68,14,0.73,11,0.66,13,-999,32.0,1,3,2,0.0,-1.0,3.0,-1.0,0.0,0.0,100
38,3,3426.51,48,3843.6,3845.12,5.36,B,right,0.72,13,0.65,14,0.7,12,0.63,13,-999,32.0,1,3,2,-3.0,0.0,0.0,-1.0,3.0,0.0,111
38,3,3426.51,49,3850.81,3852.33,9.42,A,mid,0.78,13,0.62,14,0.85,11,0.55,17,-999,2.0,2,3,1,3.0,0.0,-3.0,-1.0,0.0,0.0,111
38,3,3426.51,50,3862.09,3863.61,3.82,A,right,0.75,13,0.65,15,0.82,10,0.52,16,-999,1.0,3,2,1,0.0,0.0,0.0,0.0,-3.0,-1.0,101
38,3,3426.51,51,3867.78,3869.29,8.34,B,mid,0.75,12,0.65,14,0.73,11,0.63,13,-999,32.0,3,2,1,0.0,-1.0,0.0,-1.0,3.0,0.0,1
38,3,3426.51,52,3877.97,3879.49,8.22,B,left,0.72,13,0.65,15,0.7,12,0.63,14,-999,31.0,3,1,2,-3.0,0.0,0.0,0.0,-3.0,-1.0,100
38,3,3426.51,53,3888.04,3889.55,11.82,A,mid,0.78,12,0.68,15,0.76,11,0.66,14,-999,31.0,2,1,3,3.0,-1.0,3.0,0.0,0.0,0.0,0
38,3,3426.51,54,3901.71,3903.23,11.94,C,left,0.78,12,0.68,15,0.88,11,0.58,17,-999,1.0,2,3,1,3.0,-1.0,3.0,0.0,3.0,0.0,111
38,3,3426.51,55,3915.51,3917.03,2.62,A,right,0.72,13,0.62,14,0.85,11,0.55,17,-999,2.0,3,2,1,-3.0,0.0,-3.0,-1.0,0.0,0.0,111
38,3,3426.51,56,3919.99,3921.51,4.31,A,mid,0.72,12,0.68,14,0.7,11,0.66,13,-999,31.0,2,1,3,-3.0,-1.0,3.0,-1.0,-3.0,0.0,101
38,3,3426.51,57,3926.16,3927.67,4.89,A,mid,0.78,13,0.68,15,0.76,12,0.66,14,-999,31.0,2,3,1,3.0,0.0,3.0,0.0,0.0,0.0,101
38,3,3426.51,58,3932.9,3934.42,5.85,A,left,0.72,13,0.68,15,0.82,10,0.52,16,-999,1.0,1,2,3,-3.0,0.0,3.0,0.0,-3.0,-1.0,111
38,3,3426.51,59,3940.6,3942.12,20.38,A,right,0.78,13,0.65,14,0.82,11,0.52,17,-999,1.0,3,1,2,3.0,0.0,0.0,-1.0,-3.0,0.0,100
38,3,3426.51,60,3962.84,3964.36,3.97,A,left,0.72,13,0.62,14,0.7,12,0.6,13,-999,32.0,1,3,2,-3.0,0.0,-3.0,-1.0,0.0,0.0,101
38,3,3426.51,61,3968.68,3970.19,5.15,A,left,0.75,13,0.65,15,0.73,12,0.63,14,-999,31.0,1,3,2,0.0,0.0,0.0,0.0,0.0,-1.0,100
38,3,3426.51,62,3975.67,3977.19,3.98,A,mid,0.78,13,0.65,14,0.82,10,0.52,16,-999,2.0,2,3,1,3.0,0.0,0.0,-1.0,-3.0,-1.0,101
38,3,3426.51,63,3981.51,3983.02,10.8,A,left,0.75,13,0.62,14,0.88,11,0.58,17,-999,2.0,1,3,2,0.0,0.0,-3.0,-1.0,3.0,0.0,111
38,3,3426.51,64,3994.17,3995.68,3.2,A,mid,0.78,13,0.65,15,0.76,12,0.63,14,-999,32.0,2,3,1,3.0,0.0,0.0,0.0,0.0,0.0,10
38,3,3426.51,65,3999.23,4000.75,9.75,A,right,0.78,13,0.68,15,0.88,10,0.58,16,-999,1.0,3,2,1,3.0,0.0,3.0,0.0,3.0,-1.0,0
38,3,3426.51,66,4010.85,4012.36,6.14,A,mid,0.72,13,0.62,15,0.7,12,0.6,14,-999,32.0,2,3,1,-3.0,0.0,-3.0,0.0,0.0,0.0,111
38,3,3426.51,67,4018.84,4020.36,8.18,A,mid,0.72,12,0.62,14,0.88,11,0.58,17,-999,2.0,2,3,1,-3.0,-1.0,-3.0,-1.0,3.0,0.0,10
38,3,3426.51,68,4028.87,4030.39,4.44,A,left,0.78,13,0.62,14,0.85,10,0.55,16,-999,1.0,1,3,2,3.0,0.0,-3.0,-1.0,0.0,-1.0,11
38,3,3426.51,69,4035.17,4036.69,4.64,B,right,0.72,12,0.68,15,0.88,11,0.58,17,-999,2.0,1,3,2,-3.0,-1.0,3.0,0.0,3.0,0.0,0
38,3,3426.51,70,4041.67,4043.19,7.98,B,left,0.78,12,0.65,15,0.76,11,0.63,14,-999,32.0,2,1,3,3.0,-1.0,0.0,0.0,-3.0,-1.0,110
38,3,3426.51,71,4051.5,4053.02,5.17,B,left,0.72,13,0.68,14,0.88,11,0.58,17,-999,2.0,2,1,3,-3.0,0.0,3.0,-1.0,3.0,0.0,111
38,3,3426.51,72,4058.51,4060.03,7.9,A,mid,0.72,12,0.65,15,0.85,11,0.55,17,-999,2.0,2,1,3,-3.0,-1.0,0.0,0.0,0.0,0.0,111
38,3,3426.51,73,4068.28,4069.79,6.14,B,left,0.72,12,0.65,14,0.7,11,0.63,13,-999,31.0,3,1,2,-3.0,-1.0,0.0,-1.0,3.0,-1.0,0
38,3,3426.51,74,4076.27,4077.79,6.89,A,mid,0.75,13,0.65,15,0.73,12,0.63,14,-999,31.0,2,3,1,0.0,0.0,0.0,0.0,0.0,0.0,10
38,3,3426.51,75,4085.02,4086.54,25.51,B,mid,0.75,12,0.68,14,0.73,11,0.66,13,-999,31.0,3,2,1,0.0,-1.0,3.0,-1.0,0.0,-1.0,11
