subject,block,block_onset,trial,fixation_cross_onset,trial_onset,rt,choice,key,pA,mA,pB,mB,pCA,mCA,pCB,mCB,missing,condition,position_A,position_B,position_C,noise_Ap,noise_Am,noise_Bp,noise_Bm,noise_Cp,noise_Cm,attribute_positions
41,Practice,1076.86,P1,1076.91,1078.42,10.43,C,mid,0.78,7,0.62,17,0.85,3,0.55,24,-999,2.0,3,1,2,3.0,-2.0,-3.0,2.0,0.0,-1.0,1
41,Practice,1076.86,P2,1089.2,1090.72,17.4,C,right,0.72,7,0.62,16,0.88,5,0.58,26,-999,2.0,1,2,3,-3.0,-2.0,-3.0,1.0,3.0,1.0,10
41,Practice,1076.86,P3,1108.46,1109.98,46.76,B,right,0.75,11,0.68,13,0.85,4,0.55,25,-999,1.0,2,3,1,0.0,2.0,3.0,-2.0,0.0,0.0,110
41,Practice,1076.86,P4,1157.08,1158.6,7.77,B,left,0.75,9,0.65,15,0.88,5,0.58,26,-999,1.0,3,1,2,0.0,0.0,0.0,0.0,3.0,1.0,100
41,Practice,1076.86,P5,1166.71,1168.23,5.25,B,right,0.72,11,0.62,13,0.85,6,0.55,27,-999,1.0,1,3,2,-3.0,2.0,-3.0,-2.0,0.0,2.0,101
41,Practice,1076.86,P6,1173.81,1175.33,4.52,C,left,0.78,7,0.62,13,0.82,6,0.52,27,-999,2.0,2,3,1,3.0,-2.0,-3.0,-2.0,-3.0,2.0,110
41,Practice,1076.86,P7,1180.17,1181.69,5.86,C,right,0.75,7,0.65,17,0.85,5,0.55,26,-999,2.0,2,1,3,0.0,-2.0,0.0,2.0,0.0,1.0,111
41,Practice,1076.86,P8,1187.89,1189.4,7.44,B,left,0.72,8,0.68,15,0.82,6,0.52,27,-999,2.0,3,1,2,-3.0,-1.0,3.0,0.0,-3.0,2.0,110
41,Practice,1076.86,P9,1197.19,1198.7,8.51,B,left,0.78,8,0.62,16,0.88,5,0.58,26,-999,1.0,3,1,2,3.0,-1.0,-3.0,1.0,3.0,1.0,1
41,Practice,1076.86,P10,1207.55,1209.06,12.0,C,right,0.75,10,0.65,16,0.82,2,0.52,23,-999,2.0,1,2,3,0.0,1.0,0.0,1.0,-3.0,-2.0,101
41,Practice,1076.86,P11,1221.41,1222.93,5.79,C,left,0.72,8,0.65,15,0.85,5,0.55,26,-999,2.0,2,3,1,-3.0,-1.0,0.0,0.0,0.0,1.0,0
41,Practice,1076.86,P12,1229.06,1230.57,7.95,B,right,0.72,8,0.68,15,0.85,5,0.55,26,-999,1.0,2,3,1,-3.0,-1.0,3.0,0.0,0.0,1.0,101
41,Practice,1076.86,P13,1238.86,1240.37,7.32,A,mid,0.78,11,0.68,16,0.88,5,0.58,26,-999,1.0,2,1,3,3.0,2.0,3.0,1.0,3.0,1.0,111
41,Practice,1076.86,P14,1248.04,1249.55,2.89,A,right,0.72,11,0.62,17,0.82,3,0.52,24,-999,2.0,3,2,1,-3.0,2.0,-3.0,2.0,-3.0,-1.0,0
41,Practice,1076.86,P15,1252.78,1254.3,6.96,C,left,0.78,7,0.68,14,0.88,5,0.58,26,-999,2.0,2,3,1,3.0,-2.0,3.0,-1.0,3.0,1.0,10
41,Practice,1076.86,P16,1261.6,1263.11,6.44,B,left,0.78,7,0.65,13,0.82,2,0.52,23,-999,2.0,2,1,3,3.0,-2.0,0.0,-2.0,-3.0,-2.0,1
41,Practice,1076.86,P17,1269.9,1271.41,9.07,C,left,0.72,10,0.65,13,0.82,5,0.52,26,-999,2.0,3,2,1,-3.0,1.0,0.0,-2.0,-3.0,1.0,110
41,Practice,1076.86,P18,1280.82,1282.34,7.16,C,mid,0.78,7,0.68,13,0.88,2,0.58,23,-999,2.0,3,1,2,3.0,-2.0,3.0,-2.0,3.0,-2.0,10
41,Practice,1076.86,P19,1289.84,1291.35,8.76,A,right,0.78,11,0.62,15,0.85,4,0.55,25,-999,1.0,3,1,2,3.0,2.0,-3.0,0.0,0.0,0.0,110
41,Practice,1076.86,P20,1300.45,1301.97,3.67,B,right,0.72,7,0.65,14,0.88,4,0.58,25,-999,1.0,1,3,2,-3.0,-2.0,0.0,-1.0,3.0,0.0,11
41,Practice,1076.86,P21,1305.98,1307.5,5.11,B,left,0.78,9,0.65,16,0.85,2,0.55,23,-999,1.0,3,1,2,3.0,0.0,0.0,1.0,0.0,-2.0,0
41,Practice,1076.86,P22,1312.95,1314.46,5.61,B,right,0.72,9,0.62,15,0.85,2,0.55,23,-999,1.0,1,3,2,-3.0,0.0,-3.0,0.0,0.0,-2.0,10
41,Practice,1076.86,P23,1320.41,1321.93,6.93,B,left,0.72,7,0.65,13,0.88,3,0.58,24,-999,1.0,3,1,2,-3.0,-2.0,0.0,-2.0,3.0,-1.0,100
41,Practice,1076.86,P24,1329.19,1330.71,5.27,C,right,0.78,7,0.65,13,0.82,5,0.52,26,-999,2.0,2,1,3,3.0,-2.0,0.0,-2.0,-3.0,1.0,10
41,Practice,1076.86,P25,1336.32,1337.84,4.93,A,mid,0.78,10,0.68,13,0.85,4,0.55,25,-999,1.0,2,3,1,3.0,1.0,3.0,-2.0,0.0,0.0,111
41,Practice,1491.59,P1,1491.61,1493.12,5.59,B,left,0.78,7,0.62,17,0.85,3,0.55,24,-999,2.0,2,1,3,3.0,-2.0,-3.0,2.0,0.0,-1.0,11
41,Practice,1491.59,P2,1499.05,1500.57,5.29,C,mid,0.72,7,0.62,16,0.88,5,0.58,26,-999,2.0,1,3,2,-3.0,-2.0,-3.0,1.0,3.0,1.0,101
41,Practice,1491.59,P3,1506.2,1507.72,3.05,A,right,0.75,11,0.68,13,0.85,4,0.55,25,-999,1.0,3,1,2,0.0,2.0,3.0,-2.0,0.0,0.0,100
41,Practice,1491.59,P4,1511.1,1512.62,3.94,B,right,0.75,9,0.65,15,0.88,5,0.58,26,-999,1.0,2,3,1,0.0,0.0,0.0,0.0,3.0,1.0,101
41,Practice,1491.59,P5,1516.9,1518.42,5.01,A,left,0.72,11,0.62,13,0.85,6,0.55,27,-999,1.0,1,2,3,-3.0,2.0,-3.0,-2.0,0.0,2.0,1
41,Practice,1491.59,P6,1523.76,1525.28,0.09,B,left,0.78,7,0.62,13,0.82,6,0.52,27,-999,2.0,2,1,3,3.0,-2.0,-3.0,-2.0,-3.0,2.0,101
41,Practice,1491.59,P7,1525.71,1527.23,0.0,A,left,0.75,7,0.65,17,0.85,5,0.55,26,-999,2.0,1,2,3,0.0,-2.0,0.0,2.0,0.0,1.0,100
41,Practice,1491.59,P8,1527.56,1529.08,0.04,C,left,0.72,8,0.68,15,0.82,6,0.52,27,-999,2.0,2,3,1,-3.0,-1.0,3.0,0.0,-3.0,2.0,100
41,Practice,1491.59,P9,1529.46,1530.98,0.02,C,left,0.78,8,0.62,16,0.88,5,0.58,26,-999,1.0,3,2,1,3.0,-1.0,-3.0,1.0,3.0,1.0,100
41,Practice,1491.59,P10,1531.34,1532.86,0.0,A,left,0.75,10,0.65,16,0.82,2,0.52,23,-999,2.0,1,3,2,0.0,1.0,0.0,1.0,-3.0,-2.0,0
41,Practice,1491.59,P11,1533.19,1534.71,0.06,A,left,0.72,8,0.65,15,0.85,5,0.55,26,-999,2.0,1,2,3,-3.0,-1.0,0.0,0.0,0.0,1.0,101
41,Practice,1491.59,P12,1535.11,1536.63,0.11,B,left,0.72,8,0.68,15,0.85,5,0.55,26,-999,1.0,2,1,3,-3.0,-1.0,3.0,0.0,0.0,1.0,110
41,Practice,1491.59,P13,1537.08,1538.59,0.2,B,left,0.78,11,0.68,16,0.88,5,0.58,26,-999,1.0,2,1,3,3.0,2.0,3.0,1.0,3.0,1.0,11
41,Practice,1491.59,P14,1539.13,1540.64,0.0,B,mid,0.72,11,0.62,17,0.82,3,0.52,24,-999,2.0,1,2,3,-3.0,2.0,-3.0,2.0,-3.0,-1.0,100
41,Practice,1491.59,P15,1540.99,1542.51,0.0,A,mid,0.78,7,0.68,14,0.88,5,0.58,26,-999,2.0,2,1,3,3.0,-2.0,3.0,-1.0,3.0,1.0,110
41,Practice,1491.59,P16,1542.84,1544.36,0.06,B,mid,0.78,7,0.65,13,0.82,2,0.52,23,-999,2.0,1,2,3,3.0,-2.0,0.0,-2.0,-3.0,-2.0,100
41,Practice,1491.59,P17,1544.76,1546.27,0.09,C,mid,0.72,10,0.65,13,0.82,5,0.52,26,-999,2.0,3,1,2,-3.0,1.0,0.0,-2.0,-3.0,1.0,100
41,Practice,1491.59,P18,1546.71,1548.22,0.0,A,mid,0.78,7,0.68,13,0.88,2,0.58,23,-999,2.0,2,3,1,3.0,-2.0,3.0,-2.0,3.0,-2.0,1
41,Practice,1491.59,P19,1548.56,1550.07,0.15,C,mid,0.78,11,0.62,15,0.85,4,0.55,25,-999,1.0,3,1,2,3.0,2.0,-3.0,0.0,0.0,0.0,0
41,Practice,1491.59,P20,1550.55,1552.07,0.25,B,mid,0.72,7,0.65,14,0.88,4,0.58,25,-999,1.0,1,2,3,-3.0,-2.0,0.0,-1.0,3.0,0.0,10
41,Practice,1491.59,P21,1552.67,1554.19,0.31,C,mid,0.78,9,0.65,16,0.85,2,0.55,23,-999,1.0,1,3,2,3.0,0.0,0.0,1.0,0.0,-2.0,0
41,Practice,1491.59,P22,1554.84,1556.35,0.22,A,mid,0.72,9,0.62,15,0.85,2,0.55,23,-999,1.0,2,3,1,-3.0,0.0,-3.0,0.0,0.0,-2.0,110
41,Practice,1491.59,P23,1556.92,1558.44,0.21,A,mid,0.72,7,0.65,13,0.88,3,0.58,24,-999,1.0,2,1,3,-3.0,-2.0,0.0,-2.0,3.0,-1.0,0
41,Practice,1491.59,P24,1558.99,1560.5,0.22,B,mid,0.78,7,0.65,13,0.82,5,0.52,26,-999,2.0,3,2,1,3.0,-2.0,0.0,-2.0,-3.0,1.0,101
41,Practice,1491.59,P25,1561.07,1562.58,0.21,A,mid,0.78,10,0.68,13,0.85,4,0.55,25,-999,1.0,2,1,3,3.0,1.0,3.0,-2.0,0.0,0.0,1
41,Estimation1,1600.5,E1,1600.56,1602.07,5.24,A,right,0.75,11,0.65,15,0.85,-999,0.55,20,3,,3,1,2,,,,,,,101
41,Estimation1,1600.5,E2,1607.64,1609.15,4.37,B,mid,0.75,8,0.65,15,0.85,-999,0.55,20,1,2.0,3,2,1,,,,,,,100
41,Estimation1,1600.5,E3,1613.87,1615.38,3.39,B,right,0.75,8,0.65,15,0.85,-999,0.55,28,3,,2,3,1,,,,,,,110
41,Estimation1,1600.5,E4,1619.12,1620.63,3.63,C,right,0.75,10,0.65,15,0.85,-999,0.55,28,1,2.0,1,2,3,,,,,,,100
41,Estimation1,1600.5,E5,1624.6,1626.11,5.55,A,left,0.75,10,0.65,15,0.85,-999,0.55,24,3,,1,2,3,,,,,,,100
41,Estimation1,1600.5,E6,1632.0,1633.51,8.07,C,mid,0.75,9,0.65,15,0.85,-999,0.55,24,1,2.0,3,1,2,,,,,,,11
41,Estimation1,1600.5,E7,1641.93,1643.44,4.44,B,left,0.75,9,0.65,15,0.85,-999,0.55,22,3,,2,1,3,,,,,,,100
41,Estimation1,1600.5,E8,1648.22,1649.74,3.08,C,mid,0.75,10,0.65,15,0.85,-999,0.55,22,1,2.0,1,3,2,,,,,,,100
41,Estimation1,1600.5,E9,1653.16,1654.67,6.43,B,left,0.75,10,0.65,15,0.85,-999,0.55,21,3,,3,1,2,,,,,,,0
41,Estimation1,1600.5,E10,1661.44,1662.95,3.16,B,mid,0.75,10,0.65,15,0.85,5,0.55,21,1,2.0,3,2,1,,,,,,,101
41,Estimation1,1600.5,E11,1666.45,1667.97,2.0,A,left,0.75,10,0.65,15,0.85,5,0.55,22,2,1.0,1,2,3,,,,,,,11
41,Estimation1,1600.5,E12,1670.3,1671.82,3.74,C,mid,0.75,10,0.65,15,0.85,7,0.55,22,1,2.0,3,1,2,,,,,,,1
41,Estimation1,1600.5,E13,1675.9,1677.41,3.58,A,left,0.75,10,0.65,15,0.85,7,0.55,22,2,1.0,1,2,3,,,,,,,101
41,Estimation1,1600.5,E14,1681.33,1682.85,2.82,C,mid,0.75,10,0.65,15,0.85,8,0.55,22,1,2.0,3,1,2,,,,,,,101
41,Estimation1,1600.5,E15,1686.01,1687.53,3.4,C,mid,0.75,10,0.65,15,0.85,8,0.55,22,2,1.0,3,1,2,,,,,,,101
41,1,1694.36,1,1694.43,1695.94,5.01,B,left,0.75,9,0.62,15,0.73,8,0.6,14,-999,32.0,2,1,3,0.0,-1.0,-3.0,0.0,-3.0,0.0,101
41,1,1694.36,2,1701.29,1702.81,5.29,B,right,0.78,9,0.68,14,0.76,8,0.66,13,-999,32.0,2,3,1,3.0,-1.0,3.0,-1.0,3.0,-1.0,100
41,1,1694.36,3,1708.44,1709.95,5.68,B,left,0.78,9,0.62,15,0.85,7,0.55,21,-999,1.0,2,1,3,3.0,-1.0,-3.0,0.0,0.0,-1.0,0
41,1,1694.36,4,1715.97,1717.48,6.36,C,left,0.75,10,0.65,14,0.85,7,0.55,21,-999,2.0,2,3,1,0.0,0.0,0.0,-1.0,0.0,-1.0,110
41,1,1694.36,5,1724.18,1725.7,9.99,A,left,0.32,31,0.48,20,0.85,11,-999.0,-999,-999,99.0,1,2,3,0.0,0.0,0.0,0.0,0.0,0.0,10
41,1,1694.36,6,1736.03,1737.54,3.86,B,right,0.72,10,0.62,15,0.7,9,0.6,14,-999,32.0,1,3,2,-3.0,0.0,-3.0,0.0,0.0,0.0,100
41,1,1694.36,7,1741.74,1743.26,6.96,C,mid,0.75,10,0.62,14,0.88,8,0.58,22,-999,2.0,3,1,2,0.0,0.0,-3.0,-1.0,3.0,0.0,110
41,1,1694.36,8,1750.56,1752.07,2.78,B,right,0.75,9,0.68,14,0.73,8,0.66,13,-999,31.0,2,3,1,0.0,-1.0,3.0,-1.0,0.0,-1.0,0
41,1,1694.36,9,1755.19,1756.71,4.85,A,mid,0.78,10,0.65,14,0.82,8,0.52,22,-999,1.0,2,1,3,3.0,0.0,0.0,-1.0,-3.0,0.0,111
41,1,1694.36,10,1761.89,1763.4,5.41,B,mid,0.72,9,0.68,14,0.85,8,0.55,22,-999,2.0,1,2,3,-3.0,-1.0,3.0,-1.0,0.0,0.0,100
41,1,1694.36,11,1769.15,1770.67,4.53,B,mid,0.24,41,0.37,27,0.76,13,-999.0,-999,-999,99.0,1,2,3,0.0,0.0,0.0,0.0,0.0,0.0,110
41,1,1694.36,12,1775.53,1777.05,7.45,B,mid,0.78,10,0.62,14,0.76,9,0.6,13,-999,31.0,1,2,3,3.0,0.0,-3.0,-1.0,-3.0,0.0,11
41,1,1694.36,13,1784.83,1786.35,6.97,B,left,0.72,10,0.68,15,0.82,7,0.52,21,-999,1.0,3,1,2,-3.0,0.0,3.0,0.0,-3.0,-1.0,110
41,1,1694.36,14,1793.66,1795.18,7.22,A,mid,0.16,62,0.46,21,0.87,11,-999.0,-999,-999,99.0,2,1,3,0.0,0.0,0.0,0.0,0.0,0.0,110
41,1,1694.36,15,1802.74,1804.26,7.69,B,right,0.75,10,0.65,15,0.82,7,0.52,21,-999,1.0,1,3,2,0.0,0.0,0.0,0.0,-3.0,-1.0,1
41,1,1694.36,16,1812.29,1813.8,3.82,B,mid,0.72,10,0.65,14,0.7,9,0.63,13,-999,32.0,1,2,3,-3.0,0.0,0.0,-1.0,3.0,0.0,110
41,1,1694.36,17,1817.97,1819.49,3.83,B,left,0.78,9,0.68,15,0.76,8,0.66,14,-999,31.0,3,1,2,3.0,-1.0,3.0,0.0,0.0,0.0,10
41,1,1694.36,18,1823.65,1825.17,3.0,A,right,0.75,9,0.68,14,0.73,8,0.66,13,-999,32.0,3,2,1,0.0,-1.0,3.0,-1.0,0.0,0.0,1
41,1,1694.36,19,1828.52,1830.03,2.75,A,mid,0.78,10,0.65,14,0.82,7,0.52,21,-999,1.0,2,1,3,3.0,0.0,0.0,-1.0,-3.0,-1.0,10
41,1,1694.36,20,1833.13,1834.65,5.29,A,mid,0.72,9,0.65,15,0.7,8,0.63,14,-999,31.0,2,3,1,-3.0,-1.0,0.0,0.0,3.0,-1.0,11
41,1,1694.36,21,1840.28,1841.79,11.45,A,left,0.75,10,0.65,14,0.73,9,0.63,13,-999,31.0,1,2,3,0.0,0.0,0.0,-1.0,-3.0,-1.0,10
41,1,1694.36,22,1853.57,1855.09,2.1,B,mid,0.75,10,0.65,15,0.73,9,0.63,14,-999,31.0,1,2,3,0.0,0.0,0.0,0.0,0.0,0.0,11
41,1,1694.36,23,1857.54,1859.06,2.39,B,mid,0.75,9,0.62,15,0.88,8,0.58,22,-999,1.0,3,2,1,0.0,-1.0,-3.0,0.0,3.0,0.0,0
41,1,1694.36,24,1861.79,1863.3,4.4,A,mid,0.72,10,0.62,14,0.85,8,0.55,22,-999,2.0,2,1,3,-3.0,0.0,-3.0,-1.0,0.0,0.0,1
41,1,1694.36,25,1868.04,1869.55,5.96,C,right,0.29,34,0.42,23,0.72,13,-999.0,-999,-999,99.0,2,1,3,0.0,0.0,0.0,0.0,0.0,0.0,10
41,1,1694.36,26,1875.85,1877.37,4.89,C,right,0.78,10,0.62,14,0.85,8,0.55,22,-999,2.0,1,2,3,3.0,0.0,-3.0,-1.0,0.0,0.0,0
41,1,1694.36,27,1882.6,1884.11,6.55,C,right,0.27,37,0.61,16,0.89,11,-999.0,-999,-999,99.0,2,1,3,0.0,0.0,0.0,0.0,0.0,0.0,100
41,1,1694.36,28,1891.0,1892.51,3.43,B,mid,0.72,10,0.62,15,0.7,9,0.6,14,-999,32.0,1,2,3,-3.0,0.0,-3.0,0.0,3.0,-1.0,0
41,1,1694.36,29,1896.28,1897.79,7.14,B,right,0.78,9,0.62,14,0.76,8,0.6,13,-999,32.0,2,3,1,3.0,-1.0,-3.0,-1.0,0.0,-1.0,10
41,1,1694.36,30,1905.27,1906.79,4.42,C,right,0.75,9,0.62,15,0.88,7,0.58,21,-999,2.0,1,2,3,0.0,-1.0,-3.0,0.0,3.0,-1.0,101
41,1,1694.36,31,1911.56,1913.07,2.82,B,right,0.72,10,0.65,15,0.82,7,0.52,21,-999,1.0,1,3,2,-3.0,0.0,0.0,0.0,-3.0,-1.0,111
41,1,1694.36,32,1916.22,1917.74,7.3,C,right,0.72,9,0.65,15,0.85,8,0.55,22,-999,2.0,2,1,3,-3.0,-1.0,0.0,0.0,0.0,0.0,100
41,1,1694.36,33,1925.37,1926.88,4.22,B,left,0.72,9,0.62,15,0.7,8,0.6,14,-999,32.0,3,1,2,-3.0,-1.0,-3.0,0.0,-3.0,-1.0,110
41,1,1694.36,34,1931.45,1932.97,5.23,B,mid,0.72,10,0.68,15,0.82,7,0.52,21,-999,1.0,3,2,1,-3.0,0.0,3.0,0.0,-3.0,-1.0,1
41,1,1694.36,35,1938.53,1940.05,2.85,B,left,0.72,10,0.62,15,0.7,9,0.6,14,-999,31.0,3,1,2,-3.0,0.0,-3.0,0.0,0.0,-1.0,111
41,1,1694.36,36,1943.23,1944.75,2.94,B,mid,0.75,10,0.65,15,0.73,9,0.63,14,-999,31.0,3,2,1,0.0,0.0,0.0,0.0,0.0,-1.0,0
41,1,1694.36,37,1948.03,1949.54,3.18,C,right,0.28,35,0.67,14,0.78,12,-999.0,-999,-999,99.0,1,2,3,0.0,0.0,0.0,0.0,0.0,0.0,0
41,1,1694.36,38,1968.87,1970.39,7.48,B,right,0.78,10,0.65,15,0.76,9,0.63,14,-999,32.0,2,3,1,3.0,0.0,0.0,0.0,0.0,0.0,110
41,1,1694.36,39,1978.2,1979.72,3.91,A,mid,0.75,10,0.65,15,0.85,8,0.55,22,-999,1.0,2,1,3,0.0,0.0,0.0,0.0,0.0,0.0,101
41,1,1694.36,40,1983.97,1985.48,5.58,C,right,0.19,52,0.56,17,0.8,12,-999.0,-999,-999,99.0,2,1,3,0.0,0.0,0.0,0.0,0.0,0.0,111
41,1,1694.36,41,1991.4,1992.91,8.94,C,mid,0.32,31,0.6,16,0.78,12,-999.0,-999,-999,99.0,1,3,2,0.0,0.0,0.0,0.0,0.0,0.0,10
41,1,1694.36,42,2002.19,2003.71,6.48,B,mid,0.78,10,0.68,15,0.76,9,0.66,14,-999,31.0,1,2,3,3.0,0.0,3.0,0.0,0.0,0.0,111
41,1,1694.36,43,2010.52,2012.04,4.15,B,left,0.72,10,0.65,15,0.7,9,0.63,14,-999,31.0,3,1,2,-3.0,0.0,0.0,0.0,-3.0,-1.0,111
41,1,1694.36,44,2016.54,2018.05,3.68,B,mid,0.72,9,0.65,15,0.88,7,0.58,21,-999,2.0,3,2,1,-3.0,-1.0,0.0,0.0,3.0,-1.0,100
41,1,1694.36,45,2022.07,2023.59,4.88,B,left,0.72,10,0.65,15,0.82,7,0.52,21,-999,2.0,3,1,2,-3.0,0.0,0.0,0.0,-3.0,-1.0,0
41,1,1694.36,46,2028.8,2030.32,5.01,B,right,0.78,10,0.62,14,0.85,7,0.55,21,-999,1.0,1,3,2,3.0,0.0,-3.0,-1.0,0.0,-1.0,110
41,1,1694.36,47,2035.67,2037.18,5.15,B,left,0.78,9,0.68,15,0.88,8,0.58,22,-999,1.0,3,1,2,3.0,-1.0,3.0,0.0,3.0,0.0,110
41,1,1694.36,48,2042.66,2044.18,5.63,B,left,0.78,10,0.65,15,0.76,9,0.63,14,-999,32.0,2,1,3,3.0,0.0,0.0,0.0,-3.0,-1.0,110
41,1,1694.36,49,2050.14,2051.66,12.88,B,mid,0.78,10,0.65,14,0.82,7,0.52,21,-999,2.0,3,2,1,3.0,0.0,0.0,-1.0,-3.0,-1.0,110
41,1,1694.36,50,2064.89,2066.41,4.27,B,mid,0.75,10,0.65,14,0.73,9,0.63,13,-999,31.0,3,2,1,0.0,0.0,0.0,-1.0,0.0,0.0,100
41,1,1694.36,51,2071.02,2072.54,6.05,A,mid,0.72,10,0.62,14,0.85,8,0.55,22,-999,2.0,2,1,3,-3.0,0.0,-3.0,-1.0,0.0,0.0,110
41,1,1694.36,52,2078.94,2080.45,4.16,C,right,0.72,9,0.68,15,0.88,8,0.58,22,-999,2.0,1,2,3,-3.0,-1.0,3.0,0.0,3.0,0.0,0
41,1,1694.36,53,2084.95,2086.47,5.28,C,mid,0.72,10,0.62,14,0.7,9,0.6,13,-999,32.0,3,1,2,-3.0,0.0,-3.0,-1.0,0.0,0.0,1
41,1,1694.36,54,2092.08,2093.6,4.91,B,right,0.72,9,0.68,14,0.7,8,0.66,13,-999,31.0,1,3,2,-3.0,-1.0,3.0,-1.0,-3.0,0.0,1
41,1,1694.36,55,2098.85,2100.36,3.45,B,right,0.78,9,0.65,15,0.76,8,0.63,14,-999,32.0,1,3,2,3.0,-1.0,0.0,0.0,-3.0,-1.0,0
41,1,1694.36,56,2104.16,2105.68,2.83,B,mid,0.75,9,0.65,15,0.73,8,0.63,14,-999,31.0,1,2,3,0.0,-1.0,0.0,0.0,3.0,-1.0,0
41,1,1694.36,57,2108.84,2110.36,6.17,B,left,0.72,10,0.68,14,0.7,9,0.66,13,-999,32.0,3,1,2,-3.0,0.0,3.0,-1.0,0.0,-1.0,101
41,1,1694.36,58,2116.87,2118.39,5.2,C,mid,0.75,9,0.68,15,0.88,8,0.58,22,-999,1.0,3,1,2,0.0,-1.0,3.0,0.0,3.0,0.0,10
41,1,1694.36,59,2123.94,2125.45,2.7,B,mid,0.78,10,0.68,15,0.82,8,0.52,22,-999,1.0,3,2,1,3.0,0.0,3.0,0.0,-3.0,0.0,110
41,1,1694.36,60,2128.5,2130.02,5.75,A,right,0.75,9,0.68,14,0.85,7,0.55,21,-999,2.0,3,1,2,0.0,-1.0,3.0,-1.0,0.0,-1.0,110
41,1,1694.36,61,2136.1,2137.62,7.12,C,right,0.19,52,0.59,16,0.81,12,-999.0,-999,-999,99.0,1,2,3,0.0,0.0,0.0,0.0,0.0,0.0,101
41,1,1694.36,62,2145.08,2146.6,9.23,C,mid,0.31,32,0.38,26,0.85,11,-999.0,-999,-999,99.0,3,1,2,0.0,0.0,0.0,0.0,0.0,0.0,110
41,1,1694.36,63,2156.16,2157.68,9.16,B,right,0.72,9,0.62,14,0.88,8,0.58,22,-999,2.0,1,3,2,-3.0,-1.0,-3.0,-1.0,3.0,0.0,101
41,1,1694.36,64,2167.17,2168.69,7.79,B,left,0.75,9,0.65,14,0.73,8,0.63,13,-999,32.0,3,1,2,0.0,-1.0,0.0,-1.0,3.0,0.0,1
41,1,1694.36,65,2176.82,2178.34,15.02,C,right,0.27,37,0.47,21,0.86,11,-999.0,-999,-999,99.0,2,1,3,0.0,0.0,0.0,0.0,0.0,0.0,110
41,1,1694.36,66,2193.7,2195.21,7.54,A,right,0.78,10,0.68,15,0.88,7,0.58,21,-999,1.0,3,1,2,3.0,0.0,3.0,0.0,3.0,-1.0,110
41,1,1694.36,67,2203.1,2204.61,7.12,B,mid,0.72,10,0.68,14,0.88,8,0.58,22,-999,2.0,1,2,3,-3.0,0.0,3.0,-1.0,3.0,0.0,110
41,1,1694.36,68,2212.08,2213.59,4.65,A,mid,0.78,10,0.62,15,0.76,9,0.6,14,-999,32.0,2,3,1,3.0,0.0,-3.0,0.0,3.0,0.0,111
41,1,1694.36,69,2218.59,2220.11,7.29,B,left,0.78,9,0.62,15,0.76,8,0.6,14,-999,31.0,3,1,2,3.0,-1.0,-3.0,0.0,0.0,0.0,101
41,1,1694.36,70,2227.74,2229.25,6.63,A,mid,0.75,10,0.62,15,0.88,7,0.58,21,-999,1.0,2,1,3,0.0,0.0,-3.0,0.0,3.0,-1.0,111
41,1,1694.36,71,2236.22,2237.73,13.1,C,left,0.78,9,0.68,15,0.85,7,0.55,21,-999,1.0,2,3,1,3.0,-1.0,3.0,0.0,0.0,-1.0,0
41,1,1694.36,72,2251.18,2252.7,6.78,B,left,0.78,9,0.62,15,0.76,8,0.6,14,-999,32.0,3,1,2,3.0,-1.0,-3.0,0.0,-3.0,-1.0,0
41,1,1694.36,73,2259.81,2261.33,2.9,B,left,0.72,9,0.65,15,0.7,8,0.63,14,-999,31.0,2,1,3,-3.0,-1.0,0.0,0.0,3.0,-1.0,11
41,1,1694.36,74,2264.58,2266.09,6.47,B,left,0.72,9,0.65,14,0.7,8,0.63,13,-999,31.0,2,1,3,-3.0,-1.0,0.0,-1.0,3.0,-1.0,101
41,1,1694.36,75,2272.91,2274.42,6.46,B,right,0.72,10,0.68,15,0.82,8,0.52,22,-999,2.0,2,3,1,-3.0,0.0,3.0,0.0,-3.0,0.0,100
41,Estimation2,2367.96,E1,2368.01,2369.53,5.38,B,left,0.75,11,0.65,15,0.85,-999,0.55,20,3,,3,1,2,,,,,,,0
41,Estimation2,2367.96,E2,2375.24,2376.76,4.99,B,left,0.75,12,0.65,15,0.85,-999,0.55,20,1,2.0,2,1,3,,,,,,,110
41,Estimation2,2367.96,E3,2382.09,2383.6,3.69,A,mid,0.75,12,0.65,15,0.85,-999,0.55,28,3,,2,3,1,,,,,,,111
41,Estimation2,2367.96,E4,2387.64,2389.15,5.22,B,mid,0.75,12,0.65,15,0.85,6,0.55,28,1,2.0,1,2,3,,,,,,,11
41,Estimation2,2367.96,E5,2394.72,2396.23,7.46,A,right,0.75,12,0.65,15,0.85,6,0.55,32,2,1.0,3,2,1,,,,,,,10
41,Estimation2,2367.96,E6,2404.03,2405.55,3.38,B,mid,0.75,12,0.65,15,0.85,8,0.55,32,1,2.0,3,2,1,,,,,,,11
41,Estimation2,2367.96,E7,2409.26,2410.78,3.5,A,right,0.75,12,0.65,15,0.85,8,0.55,34,2,1.0,3,1,2,,,,,,,10
41,Estimation2,2367.96,E8,2414.63,2416.14,6.99,C,mid,0.75,12,0.65,15,0.85,9,0.55,34,1,2.0,3,1,2,,,,,,,1
41,Estimation2,2367.96,E9,2423.47,2424.99,5.35,A,mid,0.75,12,0.65,15,0.85,9,0.55,33,2,1.0,2,1,3,,,,,,,111
41,Estimation2,2367.96,E10,2430.67,2432.19,5.57,C,right,0.75,12,0.65,15,0.85,10,0.55,33,1,2.0,2,1,3,,,,,,,1
41,Estimation2,2367.96,E11,2438.09,2439.6,3.17,C,left,0.75,12,0.65,15,0.85,10,0.55,33,2,1.0,3,2,1,,,,,,,110
41,2,2447.33,1,2447.4,2448.92,7.31,C,right,0.32,31,0.6,16,0.78,12,-999.0,-999,-999,99.0,1,2,3,0.0,0.0,0.0,0.0,0.0,0.0,11
41,2,2447.33,2,2456.56,2458.08,2.77,A,mid,0.75,11,0.68,14,0.73,10,0.66,13,-999,32.0,2,3,1,0.0,-1.0,3.0,-1.0,0.0,0.0,1
41,2,2447.33,3,2461.2,2462.71,5.11,B,right,0.78,12,0.62,14,0.85,10,0.55,33,-999,2.0,1,3,2,3.0,0.0,-3.0,-1.0,0.0,0.0,0
41,2,2447.33,4,2468.16,2469.68,7.93,B,left,0.31,32,0.38,26,0.85,11,-999.0,-999,-999,99.0,3,1,2,0.0,0.0,0.0,0.0,0.0,0.0,100
41,2,2447.33,5,2477.94,2479.46,4.78,B,mid,0.78,11,0.68,15,0.76,10,0.66,14,-999,31.0,1,2,3,3.0,-1.0,3.0,0.0,0.0,0.0,0
41,2,2447.33,6,2484.57,2486.09,4.85,A,mid,0.75,12,0.65,14,0.85,9,0.55,32,-999,2.0,2,1,3,0.0,0.0,0.0,-1.0,0.0,-1.0,10
41,2,2447.33,7,2491.27,2492.79,7.27,B,right,0.75,12,0.62,15,0.88,9,0.58,32,-999,1.0,1,3,2,0.0,0.0,-3.0,0.0,3.0,-1.0,111
41,2,2447.33,8,2500.4,2501.92,6.08,A,left,0.16,62,0.46,21,0.87,11,-999.0,-999,-999,99.0,1,2,3,0.0,0.0,0.0,0.0,0.0,0.0,10
41,2,2447.33,9,2508.33,2509.85,12.67,B,mid,0.27,37,0.47,21,0.86,11,-999.0,-999,-999,99.0,3,2,1,0.0,0.0,0.0,0.0,0.0,0.0,100
41,2,2447.33,10,2522.86,2524.38,4.07,B,mid,0.72,11,0.65,15,0.7,10,0.63,14,-999,31.0,1,2,3,-3.0,-1.0,0.0,0.0,3.0,-1.0,101
41,2,2447.33,11,2528.77,2530.29,5.15,B,right,0.72,12,0.65,15,0.82,9,0.52,32,-999,2.0,1,3,2,-3.0,0.0,0.0,0.0,-3.0,-1.0,11
41,2,2447.33,12,2535.77,2537.29,3.51,B,right,0.75,12,0.65,14,0.73,11,0.63,13,-999,31.0,1,3,2,0.0,0.0,0.0,-1.0,-3.0,-1.0,11
41,2,2447.33,13,2541.14,2542.65,6.21,A,right,0.72,11,0.65,14,0.7,10,0.63,13,-999,31.0,3,1,2,-3.0,-1.0,0.0,-1.0,3.0,-1.0,111
41,2,2447.33,14,2549.2,2550.72,9.36,B,right,0.78,12,0.65,14,0.82,9,0.52,32,-999,2.0,1,3,2,3.0,0.0,0.0,-1.0,-3.0,-1.0,111
41,2,2447.33,15,2560.41,2561.93,5.34,B,left,0.78,11,0.62,15,0.76,10,0.6,14,-999,31.0,2,1,3,3.0,-1.0,-3.0,0.0,0.0,0.0,10
41,2,2447.33,16,2567.61,2569.13,6.15,B,mid,0.75,11,0.62,15,0.88,9,0.58,32,-999,2.0,1,2,3,0.0,-1.0,-3.0,0.0,3.0,-1.0,0
41,2,2447.33,17,2575.63,2577.14,6.05,B,left,0.78,12,0.65,15,0.76,11,0.63,14,-999,32.0,3,1,2,3.0,0.0,0.0,0.0,0.0,0.0,0
41,2,2447.33,18,2583.52,2585.04,5.2,B,mid,0.78,11,0.68,15,0.85,9,0.55,32,-999,1.0,1,2,3,3.0,-1.0,3.0,0.0,0.0,-1.0,100
41,2,2447.33,19,2590.57,2592.09,2.69,A,mid,0.78,11,0.62,15,0.76,10,0.6,14,-999,32.0,2,1,3,3.0,-1.0,-3.0,0.0,-3.0,-1.0,101
41,2,2447.33,20,2595.12,2596.64,4.25,C,right,0.72,12,0.65,15,0.7,11,0.63,14,-999,31.0,1,2,3,-3.0,0.0,0.0,0.0,-3.0,-1.0,100
41,2,2447.33,21,2601.22,2602.73,3.74,B,right,0.78,11,0.62,14,0.76,10,0.6,13,-999,32.0,2,3,1,3.0,-1.0,-3.0,-1.0,0.0,-1.0,11
41,2,2447.33,22,2606.82,2608.33,3.97,A,right,0.75,12,0.65,15,0.82,9,0.52,32,-999,1.0,3,2,1,0.0,0.0,0.0,0.0,-3.0,-1.0,11
41,2,2447.33,23,2612.63,2614.15,3.41,A,mid,0.75,12,0.65,15,0.73,11,0.63,14,-999,31.0,2,1,3,0.0,0.0,0.0,0.0,0.0,0.0,10
41,2,2447.33,24,2617.9,2619.41,3.14,C,mid,0.72,11,0.65,15,0.88,9,0.58,32,-999,2.0,1,3,2,-3.0,-1.0,0.0,0.0,3.0,-1.0,10
41,2,2447.33,25,2622.89,2624.41,4.17,B,left,0.72,11,0.65,15,0.85,10,0.55,33,-999,2.0,2,1,3,-3.0,-1.0,0.0,0.0,0.0,0.0,110
41,2,2447.33,26,2628.91,2630.43,5.56,B,right,0.78,12,0.68,15,0.76,11,0.66,14,-999,31.0,1,3,2,3.0,0.0,3.0,0.0,0.0,0.0,0
41,2,2447.33,27,2636.32,2637.84,3.74,B,mid,0.75,11,0.65,14,0.73,10,0.63,13,-999,32.0,1,2,3,0.0,-1.0,0.0,-1.0,3.0,0.0,110
41,2,2447.33,28,2641.92,2643.44,2.47,B,right,0.72,12,0.68,14,0.7,11,0.66,13,-999,32.0,2,3,1,-3.0,0.0,3.0,-1.0,0.0,-1.0,111
41,2,2447.33,29,2646.24,2647.75,2.62,C,right,0.72,12,0.68,15,0.82,10,0.52,33,-999,2.0,2,1,3,-3.0,0.0,3.0,0.0,-3.0,0.0,101
41,2,2447.33,30,2650.72,2652.23,2.79,B,mid,0.75,11,0.62,15,0.88,10,0.58,33,-999,1.0,3,2,1,0.0,-1.0,-3.0,0.0,3.0,0.0,100
41,2,2447.33,31,2655.37,2656.88,2.4,A,left,0.72,12,0.68,15,0.82,9,0.52,32,-999,1.0,1,2,3,-3.0,0.0,3.0,0.0,-3.0,-1.0,111
41,2,2447.33,32,2659.62,2661.13,3.65,B,mid,0.72,11,0.68,14,0.85,10,0.55,33,-999,2.0,1,2,3,-3.0,-1.0,3.0,-1.0,0.0,0.0,1
41,2,2447.33,33,2665.13,2666.65,3.96,C,left,0.72,12,0.62,14,0.85,10,0.55,33,-999,2.0,3,2,1,-3.0,0.0,-3.0,-1.0,0.0,0.0,0
41,2,2447.33,34,2670.95,2672.46,6.35,B,right,0.75,11,0.62,15,0.73,10,0.6,14,-999,32.0,2,3,1,0.0,-1.0,-3.0,0.0,-3.0,0.0,10
41,2,2447.33,35,2679.16,2680.68,6.41,C,mid,0.75,12,0.65,15,0.85,10,0.55,33,-999,1.0,3,1,2,0.0,0.0,0.0,0.0,0.0,0.0,111
41,2,2447.33,36,2687.42,2688.94,4.53,B,mid,0.78,12,0.65,15,0.76,11,0.63,14,-999,32.0,3,2,1,3.0,0.0,0.0,0.0,-3.0,-1.0,110
41,2,2447.33,37,2693.8,2695.32,3.49,C,right,0.29,34,0.42,23,0.72,13,-999.0,-999,-999,99.0,1,2,3,0.0,0.0,0.0,0.0,0.0,0.0,100
41,2,2447.33,38,2733.23,2734.74,3.75,B,mid,0.78,12,0.62,14,0.76,11,0.6,13,-999,31.0,1,2,3,3.0,0.0,-3.0,-1.0,-3.0,0.0,0
41,2,2447.33,39,2738.84,2740.36,2.21,B,mid,0.78,11,0.68,14,0.76,10,0.66,13,-999,32.0,1,2,3,3.0,-1.0,3.0,-1.0,3.0,-1.0,10
41,2,2447.33,40,2742.91,2744.42,3.04,B,left,0.75,11,0.68,14,0.85,9,0.55,32,-999,2.0,3,1,2,0.0,-1.0,3.0,-1.0,0.0,-1.0,0
41,2,2447.33,41,2747.8,2749.32,3.75,B,right,0.78,11,0.65,15,0.76,10,0.63,14,-999,32.0,2,3,1,3.0,-1.0,0.0,0.0,-3.0,-1.0,110
41,2,2447.33,42,2753.4,2754.92,6.97,B,mid,0.72,12,0.62,15,0.7,11,0.6,14,-999,32.0,3,2,1,-3.0,0.0,-3.0,0.0,0.0,0.0,10
41,2,2447.33,43,2762.23,2763.75,3.95,B,mid,0.72,12,0.62,14,0.85,10,0.55,33,-999,2.0,3,2,1,-3.0,0.0,-3.0,-1.0,0.0,0.0,110
41,2,2447.33,44,2768.05,2769.56,2.89,C,mid,0.75,11,0.68,15,0.88,10,0.58,33,-999,1.0,3,1,2,0.0,-1.0,3.0,0.0,3.0,0.0,10
41,2,2447.33,45,2772.8,2774.31,3.28,A,mid,0.75,12,0.65,14,0.73,11,0.63,13,-999,31.0,2,1,3,0.0,0.0,0.0,-1.0,0.0,0.0,1
41,2,2447.33,46,2777.93,2779.44,3.06,B,mid,0.78,11,0.62,15,0.85,9,0.55,32,-999,1.0,3,2,1,3.0,-1.0,-3.0,0.0,0.0,-1.0,110
41,2,2447.33,47,2782.84,2784.36,4.57,B,right,0.72,12,0.68,14,0.88,10,0.58,33,-999,2.0,1,3,2,-3.0,0.0,3.0,-1.0,3.0,0.0,110
41,2,2447.33,48,2789.26,2790.77,2.53,A,right,0.72,11,0.68,14,0.7,10,0.66,13,-999,31.0,3,2,1,-3.0,-1.0,3.0,-1.0,-3.0,0.0,110
41,2,2447.33,49,2793.64,2795.16,3.07,B,mid,0.78,12,0.65,14,0.82,9,0.52,32,-999,1.0,3,2,1,3.0,0.0,0.0,-1.0,-3.0,-1.0,11
41,2,2447.33,50,2798.55,2800.07,6.5,C,mid,0.24,41,0.37,27,0.76,13,-999.0,-999,-999,99.0,1,3,2,0.0,0.0,0.0,0.0,0.0,0.0,111
41,2,2447.33,51,2806.92,2808.43,5.46,B,left,0.78,12,0.62,14,0.85,9,0.55,32,-999,1.0,3,1,2,3.0,0.0,-3.0,-1.0,0.0,-1.0,100
41,2,2447.33,52,2814.23,2815.75,4.92,B,mid,0.75,11,0.65,15,0.73,10,0.63,14,-999,31.0,3,2,1,0.0,-1.0,0.0,0.0,3.0,-1.0,11
41,2,2447.33,53,2821.01,2822.53,6.92,B,mid,0.72,11,0.62,14,0.88,10,0.58,33,-999,2.0,1,2,3,-3.0,-1.0,-3.0,-1.0,3.0,0.0,110
41,2,2447.33,54,2829.78,2831.29,2.73,B,mid,0.72,11,0.65,15,0.7,10,0.63,14,-999,31.0,1,2,3,-3.0,-1.0,0.0,0.0,3.0,-1.0,0
41,2,2447.33,55,2834.36,2835.88,2.47,B,mid,0.78,12,0.62,15,0.76,11,0.6,14,-999,32.0,3,2,1,3.0,0.0,-3.0,0.0,3.0,0.0,111
41,2,2447.33,56,2838.69,2840.21,3.97,B,left,0.78,12,0.68,15,0.88,9,0.58,32,-999,1.0,3,1,2,3.0,0.0,3.0,0.0,3.0,-1.0,101
41,2,2447.33,57,2844.51,2846.02,4.34,C,right,0.27,37,0.61,16,0.89,11,-999.0,-999,-999,99.0,1,2,3,0.0,0.0,0.0,0.0,0.0,0.0,11
41,2,2447.33,58,2850.7,2852.22,2.95,B,mid,0.78,12,0.65,14,0.82,10,0.52,33,-999,1.0,3,2,1,3.0,0.0,0.0,-1.0,-3.0,0.0,0
41,2,2447.33,59,2855.52,2857.04,7.42,A,left,0.72,12,0.62,14,0.7,11,0.6,13,-999,32.0,1,3,2,-3.0,0.0,-3.0,-1.0,0.0,0.0,0
41,2,2447.33,60,2864.8,2866.32,9.24,C,left,0.19,52,0.56,17,0.8,12,-999.0,-999,-999,99.0,2,3,1,0.0,0.0,0.0,0.0,0.0,0.0,10
41,2,2447.33,61,2875.9,2877.41,8.12,B,left,0.72,11,0.62,15,0.7,10,0.6,14,-999,32.0,2,1,3,-3.0,-1.0,-3.0,0.0,-3.0,-1.0,11
41,2,2447.33,62,2885.88,2887.39,5.8,B,right,0.72,12,0.62,15,0.7,11,0.6,14,-999,32.0,1,3,2,-3.0,0.0,-3.0,0.0,3.0,-1.0,100
41,2,2447.33,63,2893.54,2895.06,6.86,A,right,0.72,12,0.65,15,0.82,9,0.52,32,-999,1.0,3,2,1,-3.0,0.0,0.0,0.0,-3.0,-1.0,101
41,2,2447.33,64,2902.25,2903.77,5.6,A,left,0.72,12,0.68,15,0.82,9,0.52,32,-999,1.0,1,2,3,-3.0,0.0,3.0,0.0,-3.0,-1.0,101
41,2,2447.33,65,2909.72,2911.23,4.43,B,mid,0.75,11,0.68,14,0.73,10,0.66,13,-999,31.0,3,2,1,0.0,-1.0,3.0,-1.0,0.0,-1.0,10
41,2,2447.33,66,2916.0,2917.52,11.84,A,mid,0.78,11,0.68,15,0.88,10,0.58,33,-999,1.0,2,3,1,3.0,-1.0,3.0,0.0,3.0,0.0,111
41,2,2447.33,67,2929.7,2931.21,5.8,C,left,0.75,12,0.62,14,0.88,10,0.58,33,-999,2.0,3,2,1,0.0,0.0,-3.0,-1.0,3.0,0.0,10
41,2,2447.33,68,2937.34,2938.86,8.58,A,left,0.72,12,0.65,14,0.7,11,0.63,13,-999,32.0,1,3,2,-3.0,0.0,0.0,-1.0,3.0,0.0,10
41,2,2447.33,69,2947.77,2949.29,8.83,A,left,0.75,12,0.65,15,0.73,11,0.63,14,-999,31.0,1,2,3,0.0,0.0,0.0,0.0,0.0,-1.0,11
41,2,2447.33,70,2958.45,2959.97,8.55,C,right,0.19,52,0.59,16,0.81,12,-999.0,-999,-999,99.0,1,2,3,0.0,0.0,0.0,0.0,0.0,0.0,100
41,2,2447.33,71,2968.87,2970.38,8.09,C,mid,0.78,12,0.68,15,0.82,10,0.52,33,-999,1.0,1,3,2,3.0,0.0,3.0,0.0,-3.0,0.0,100
41,2,2447.33,72,2978.81,2980.33,6.01,A,left,0.72,12,0.62,15,0.7,11,0.6,14,-999,31.0,1,3,2,-3.0,0.0,-3.0,0.0,0.0,-1.0,1
41,2,2447.33,73,2986.68,2988.19,7.09,C,right,0.28,35,0.67,14,0.78,12,-999.0,-999,-999,99.0,1,2,3,0.0,0.0,0.0,0.0,0.0,0.0,111
41,2,2447.33,74,2995.62,2997.14,8.46,A,left,0.32,31,0.48,20,0.85,11,-999.0,-999,-999,99.0,1,2,3,0.0,0.0,0.0,0.0,0.0,0.0,111
41,2,2447.33,75,3005.94,3007.45,14.79,B,left,0.72,11,0.68,15,0.88,10,0.58,33,-999,2.0,3,1,2,-3.0,-1.0,3.0,0.0,3.0,0.0,111
41,Estimation3,3103.09,E1,3103.17,3104.69,3.45,A,mid,0.75,11,0.65,15,0.85,-999,0.55,20,3,,2,1,3,,,,,,,10
41,Estimation3,3103.09,E2,3108.47,3109.99,5.31,B,left,0.75,8,0.65,15,0.85,-999,0.55,20,1,2.0,3,1,2,,,,,,,111
41,Estimation3,3103.09,E3,3115.64,3117.15,7.32,B,right,0.75,8,0.65,15,0.85,-999,0.55,28,3,,1,3,2,,,,,,,100
41,Estimation3,3103.09,E4,3124.82,3126.33,4.37,B,right,0.75,10,0.65,15,0.85,-999,0.55,28,1,2.0,2,3,1,,,,,,,101
41,Estimation3,3103.09,E5,3131.05,3132.56,3.69,B,right,0.75,10,0.65,15,0.85,-999,0.55,32,3,,1,3,2,,,,,,,101
41,Estimation3,3103.09,E6,3136.6,3138.11,3.73,B,mid,0.75,11,0.65,15,0.85,-999,0.55,32,1,2.0,3,2,1,,,,,,,0
41,Estimation3,3103.09,E7,3142.18,3143.69,7.56,B,left,0.75,11,0.65,15,0.85,-999,0.55,34,3,,2,1,3,,,,,,,110
41,Estimation3,3103.09,E8,3151.59,3153.11,2.67,B,mid,0.75,11,0.65,15,0.85,6,0.55,34,1,2.0,3,2,1,,,,,,,0
41,Estimation3,3103.09,E9,3156.12,3157.64,3.44,A,mid,0.75,11,0.65,15,0.85,6,0.55,35,2,1.0,2,1,3,,,,,,,101
41,Estimation3,3103.09,E10,3161.42,3162.94,4.52,C,mid,0.75,11,0.65,15,0.85,8,0.55,35,1,2.0,3,1,2,,,,,,,111
41,Estimation3,3103.09,E11,3167.8,3169.32,8.43,A,right,0.75,11,0.65,15,0.85,8,0.55,35,2,1.0,3,1,2,,,,,,,11
41,Estimation3,3103.09,E12,3178.1,3179.62,3.4,C,right,0.75,11,0.65,15,0.85,9,0.55,35,1,2.0,2,1,3,,,,,,,0
41,Estimation3,3103.09,E13,3183.36,3184.88,3.77,A,left,0.75,11,0.65,15,0.85,9,0.55,35,2,1.0,1,3,2,,,,,,,110
41,3,3195.64,1,3195.71,3197.23,5.05,C,left,0.72,10,0.65,15,0.88,8,0.58,34,-999,2.0,3,2,1,-3.0,-1.0,0.0,0.0,3.0,-1.0,111
41,3,3195.64,2,3202.61,3204.12,6.49,B,left,0.78,11,0.65,15,0.76,10,0.63,14,-999,32.0,3,1,2,3.0,0.0,0.0,0.0,-3.0,-1.0,10
41,3,3195.64,3,3210.96,3212.47,6.43,C,right,0.72,11,0.65,15,0.82,8,0.52,34,-999,2.0,2,1,3,-3.0,0.0,0.0,0.0,-3.0,-1.0,110
41,3,3195.64,4,3219.24,3220.75,6.07,B,right,0.72,10,0.62,14,0.88,9,0.58,35,-999,2.0,1,3,2,-3.0,-1.0,-3.0,-1.0,3.0,0.0,0
41,3,3195.64,5,3227.17,3228.68,5.97,A,mid,0.78,11,0.68,15,0.76,10,0.66,14,-999,31.0,2,3,1,3.0,0.0,3.0,0.0,0.0,0.0,11
41,3,3195.64,6,3235.0,3236.51,7.23,B,mid,0.28,35,0.67,14,0.78,12,-999.0,-999,-999,99.0,1,2,3,0.0,0.0,0.0,0.0,0.0,0.0,11
41,3,3195.64,7,3244.08,3245.59,3.73,C,mid,0.78,10,0.65,15,0.76,9,0.63,14,-999,32.0,3,1,2,3.0,-1.0,0.0,0.0,-3.0,-1.0,110
41,3,3195.64,8,3249.66,3251.18,7.09,B,left,0.75,11,0.65,15,0.85,9,0.55,35,-999,1.0,3,1,2,0.0,0.0,0.0,0.0,0.0,0.0,10
41,3,3195.64,9,3258.61,3260.12,3.61,B,right,0.78,10,0.62,15,0.76,9,0.6,14,-999,31.0,1,3,2,3.0,-1.0,-3.0,0.0,0.0,0.0,1
41,3,3195.64,10,3264.07,3265.59,2.53,C,right,0.72,11,0.65,15,0.82,8,0.52,34,-999,1.0,2,1,3,-3.0,0.0,0.0,0.0,-3.0,-1.0,11
41,3,3195.64,11,3268.45,3269.97,2.61,B,right,0.72,11,0.62,15,0.7,10,0.6,14,-999,32.0,1,3,2,-3.0,0.0,-3.0,0.0,3.0,-1.0,110
41,3,3195.64,12,3272.92,3274.43,3.26,A,mid,0.75,10,0.68,15,0.88,9,0.58,35,-999,1.0,2,1,3,0.0,-1.0,3.0,0.0,3.0,0.0,100
41,3,3195.64,13,3278.03,3279.55,5.05,B,right,0.72,11,0.65,14,0.7,10,0.63,13,-999,32.0,2,3,1,-3.0,0.0,0.0,-1.0,3.0,0.0,10
41,3,3195.64,14,3284.93,3286.45,6.16,B,mid,0.75,10,0.65,15,0.73,9,0.63,14,-999,31.0,3,2,1,0.0,-1.0,0.0,0.0,3.0,-1.0,1
41,3,3195.64,15,3292.95,3294.46,3.19,A,mid,0.75,11,0.65,15,0.73,10,0.63,14,-999,31.0,2,1,3,0.0,0.0,0.0,0.0,0.0,0.0,10
41,3,3195.64,16,3297.99,3299.51,5.98,C,mid,0.78,11,0.68,15,0.82,9,0.52,35,-999,1.0,3,1,2,3.0,0.0,3.0,0.0,-3.0,0.0,100
41,3,3195.64,17,3305.82,3307.34,4.3,C,right,0.27,37,0.47,21,0.86,11,-999.0,-999,-999,99.0,1,2,3,0.0,0.0,0.0,0.0,0.0,0.0,100
41,3,3195.64,18,3311.97,3313.49,5.67,B,right,0.75,10,0.62,15,0.73,9,0.6,14,-999,32.0,2,3,1,0.0,-1.0,-3.0,0.0,-3.0,0.0,0
41,3,3195.64,19,3319.5,3321.02,7.48,C,left,0.27,37,0.61,16,0.89,11,-999.0,-999,-999,99.0,3,2,1,0.0,0.0,0.0,0.0,0.0,0.0,11
41,3,3195.64,20,3328.85,3330.37,5.41,C,mid,0.72,11,0.62,14,0.85,9,0.55,35,-999,2.0,1,3,2,-3.0,0.0,-3.0,-1.0,0.0,0.0,0
41,3,3195.64,21,3336.12,3337.63,5.39,B,left,0.75,10,0.68,14,0.73,9,0.66,13,-999,32.0,3,1,2,0.0,-1.0,3.0,-1.0,0.0,0.0,110
41,3,3195.64,22,3343.36,3344.88,3.39,B,right,0.32,31,0.6,16,0.78,12,-999.0,-999,-999,99.0,1,3,2,0.0,0.0,0.0,0.0,0.0,0.0,100
41,3,3195.64,23,3348.61,3350.13,3.49,C,mid,0.75,10,0.62,15,0.88,8,0.58,34,-999,2.0,1,3,2,0.0,-1.0,-3.0,0.0,3.0,-1.0,111
41,3,3195.64,24,3353.96,3355.48,3.48,B,right,0.75,11,0.65,14,0.73,10,0.63,13,-999,31.0,2,3,1,0.0,0.0,0.0,-1.0,0.0,0.0,111
41,3,3195.64,25,3359.29,3360.81,3.47,A,right,0.78,11,0.65,14,0.82,8,0.52,34,-999,1.0,3,2,1,3.0,0.0,0.0,-1.0,-3.0,-1.0,101
41,3,3195.64,26,3364.62,3366.14,5.32,B,mid,0.72,10,0.68,14,0.7,9,0.66,13,-999,31.0,3,2,1,-3.0,-1.0,3.0,-1.0,-3.0,0.0,1
41,3,3195.64,27,3371.79,3373.3,2.58,A,right,0.78,10,0.68,15,0.88,9,0.58,35,-999,1.0,3,1,2,3.0,-1.0,3.0,0.0,3.0,0.0,100
41,3,3195.64,28,3376.22,3377.74,3.42,B,left,0.72,11,0.65,15,0.7,10,0.63,14,-999,31.0,2,1,3,-3.0,0.0,0.0,0.0,-3.0,-1.0,0
41,3,3195.64,29,3381.48,3383.0,2.39,B,right,0.78,11,0.62,15,0.76,10,0.6,14,-999,32.0,2,3,1,3.0,0.0,-3.0,0.0,3.0,0.0,111
41,3,3195.64,30,3385.73,3387.25,2.14,B,mid,0.72,11,0.62,15,0.7,10,0.6,14,-999,32.0,3,2,1,-3.0,0.0,-3.0,0.0,0.0,0.0,111
41,3,3195.64,31,3389.73,3391.25,6.2,C,right,0.72,11,0.68,15,0.82,9,0.52,35,-999,2.0,2,1,3,-3.0,0.0,3.0,0.0,-3.0,0.0,101
41,3,3195.64,32,3397.78,3399.29,6.2,B,right,0.72,11,0.62,14,0.7,10,0.6,13,-999,32.0,2,3,1,-3.0,0.0,-3.0,-1.0,0.0,0.0,101
41,3,3195.64,33,3405.83,3407.34,5.58,B,mid,0.75,11,0.65,14,0.85,8,0.55,34,-999,2.0,1,2,3,0.0,0.0,0.0,-1.0,0.0,-1.0,111
41,3,3195.64,34,3413.26,3414.77,5.24,B,left,0.75,10,0.65,14,0.73,9,0.63,13,-999,32.0,3,1,2,0.0,-1.0,0.0,-1.0,3.0,0.0,100
41,3,3195.64,35,3420.35,3421.87,3.9,B,right,0.78,11,0.68,15,0.88,8,0.58,34,-999,1.0,1,3,2,3.0,0.0,3.0,0.0,3.0,-1.0,101
41,3,3195.64,36,3426.12,3427.64,5.12,B,right,0.78,11,0.65,15,0.76,10,0.63,14,-999,32.0,1,3,2,3.0,0.0,0.0,0.0,0.0,0.0,100
41,3,3195.64,37,3433.1,3434.62,8.32,C,left,0.72,10,0.65,15,0.85,9,0.55,35,-999,2.0,2,3,1,-3.0,-1.0,0.0,0.0,0.0,0.0,101
41,3,3195.64,38,3457.38,3458.89,2.83,B,right,0.31,32,0.38,26,0.85,11,-999.0,-999,-999,99.0,1,3,2,0.0,0.0,0.0,0.0,0.0,0.0,111
41,3,3195.64,39,3462.06,3463.57,6.23,A,mid,0.78,11,0.62,14,0.85,8,0.55,34,-999,1.0,2,3,1,3.0,0.0,-3.0,-1.0,0.0,-1.0,10
41,3,3195.64,40,3470.14,3471.65,3.93,B,mid,0.78,11,0.65,14,0.82,9,0.52,35,-999,1.0,3,2,1,3.0,0.0,0.0,-1.0,-3.0,0.0,0
41,3,3195.64,41,3475.92,3477.44,5.19,A,mid,0.19,52,0.59,16,0.81,12,-999.0,-999,-999,99.0,2,3,1,0.0,0.0,0.0,0.0,0.0,0.0,111
41,3,3195.64,42,3482.97,3484.48,4.89,B,right,0.72,10,0.68,15,0.88,9,0.58,35,-999,2.0,2,3,1,-3.0,-1.0,3.0,0.0,3.0,0.0,10
41,3,3195.64,43,3489.72,3491.23,2.85,B,right,0.75,11,0.62,15,0.88,8,0.58,34,-999,1.0,1,3,2,0.0,0.0,-3.0,0.0,3.0,-1.0,11
41,3,3195.64,44,3494.41,3495.93,4.99,B,right,0.72,10,0.62,15,0.7,9,0.6,14,-999,32.0,1,3,2,-3.0,-1.0,-3.0,0.0,-3.0,-1.0,0
41,3,3195.64,45,3501.26,3502.78,6.29,B,left,0.78,10,0.62,14,0.76,9,0.6,13,-999,32.0,2,1,3,3.0,-1.0,-3.0,-1.0,0.0,-1.0,110
41,3,3195.64,46,3509.41,3510.93,4.55,A,mid,0.75,10,0.62,15,0.88,9,0.58,35,-999,1.0,2,1,3,0.0,-1.0,-3.0,0.0,3.0,0.0,111
41,3,3195.64,47,3515.81,3517.32,3.65,B,left,0.75,11,0.65,15,0.73,10,0.63,14,-999,31.0,2,1,3,0.0,0.0,0.0,0.0,0.0,-1.0,111
41,3,3195.64,48,3521.31,3522.82,3.81,A,right,0.75,10,0.68,14,0.73,9,0.66,13,-999,31.0,3,1,2,0.0,-1.0,3.0,-1.0,0.0,-1.0,0
41,3,3195.64,49,3526.97,3528.49,3.27,A,mid,0.72,10,0.65,14,0.7,9,0.63,13,-999,31.0,2,3,1,-3.0,-1.0,0.0,-1.0,3.0,-1.0,10
41,3,3195.64,50,3532.1,3533.62,3.23,A,right,0.78,10,0.68,14,0.76,9,0.66,13,-999,32.0,3,2,1,3.0,-1.0,3.0,-1.0,3.0,-1.0,11
41,3,3195.64,51,3537.18,3538.7,3.42,B,mid,0.78,10,0.68,15,0.85,8,0.55,34,-999,1.0,1,2,3,3.0,-1.0,3.0,0.0,0.0,-1.0,1
41,3,3195.64,52,3542.47,3543.98,5.66,B,left,0.29,34,0.42,23,0.72,13,-999.0,-999,-999,99.0,2,1,3,0.0,0.0,0.0,0.0,0.0,0.0,0
41,3,3195.64,53,3549.98,3551.5,4.61,B,mid,0.75,11,0.65,15,0.82,8,0.52,34,-999,1.0,3,2,1,0.0,0.0,0.0,0.0,-3.0,-1.0,11
41,3,3195.64,54,3556.44,3557.96,3.55,B,left,0.75,11,0.65,14,0.73,10,0.63,13,-999,31.0,2,1,3,0.0,0.0,0.0,-1.0,-3.0,-1.0,1
41,3,3195.64,55,3561.84,3563.36,5.53,C,right,0.78,11,0.62,14,0.85,9,0.55,35,-999,2.0,2,1,3,3.0,0.0,-3.0,-1.0,0.0,0.0,10
41,3,3195.64,56,3569.22,3570.74,3.38,C,right,0.72,11,0.62,14,0.85,9,0.55,35,-999,2.0,1,2,3,-3.0,0.0,-3.0,-1.0,0.0,0.0,10
41,3,3195.64,57,3574.46,3575.97,2.9,B,mid,0.72,10,0.65,15,0.7,9,0.63,14,-999,31.0,1,2,3,-3.0,-1.0,0.0,0.0,3.0,-1.0,10
41,3,3195.64,58,3579.22,3580.74,2.52,C,left,0.75,11,0.62,14,0.88,9,0.58,35,-999,2.0,3,2,1,0.0,0.0,-3.0,-1.0,3.0,0.0,111
41,3,3195.64,59,3583.6,3585.12,2.74,B,right,0.78,11,0.62,14,0.76,10,0.6,13,-999,31.0,2,3,1,3.0,0.0,-3.0,-1.0,-3.0,0.0,101
41,3,3195.64,60,3588.2,3589.72,3.5,B,left,0.72,11,0.62,15,0.7,10,0.6,14,-999,31.0,3,1,2,-3.0,0.0,-3.0,0.0,0.0,-1.0,111
41,3,3195.64,61,3593.57,3595.08,5.23,C,right,0.24,41,0.37,27,0.76,13,-999.0,-999,-999,99.0,2,1,3,0.0,0.0,0.0,0.0,0.0,0.0,1
41,3,3195.64,62,3600.65,3602.16,8.78,B,right,0.72,11,0.68,15,0.82,8,0.52,34,-999,1.0,2,3,1,-3.0,0.0,3.0,0.0,-3.0,-1.0,10
41,3,3195.64,63,3611.28,3612.79,5.92,C,mid,0.78,10,0.62,15,0.85,8,0.55,34,-999,1.0,3,1,2,3.0,-1.0,-3.0,0.0,0.0,-1.0,11
41,3,3195.64,64,3619.06,3620.57,5.05,B,mid,0.72,11,0.68,15,0.82,8,0.52,34,-999,1.0,1,2,3,-3.0,0.0,3.0,0.0,-3.0,-1.0,110
41,3,3195.64,65,3625.96,3627.47,4.98,B,left,0.78,10,0.62,15,0.76,9,0.6,14,-999,32.0,3,1,2,3.0,-1.0,-3.0,0.0,-3.0,-1.0,1
41,3,3195.64,66,3632.79,3634.3,10.12,B,left,0.19,52,0.56,17,0.8,12,-999.0,-999,-999,99.0,2,1,3,0.0,0.0,0.0,0.0,0.0,0.0,10
41,3,3195.64,67,3644.77,3646.28,4.46,C,left,0.72,10,0.68,14,0.85,9,0.55,35,-999,2.0,2,3,1,-3.0,-1.0,3.0,-1.0,0.0,0.0,0
41,3,3195.64,68,3651.08,3652.6,5.2,B,right,0.16,62,0.46,21,0.87,11,-999.0,-999,-999,99.0,2,3,1,0.0,0.0,0.0,0.0,0.0,0.0,0
41,3,3195.64,69,3658.13,3659.64,3.73,C,mid,0.75,10,0.68,14,0.85,8,0.55,34,-999,2.0,1,3,2,0.0,-1.0,3.0,-1.0,0.0,-1.0,10
41,3,3195.64,70,3663.71,3665.23,3.42,C,right,0.72,11,0.68,14,0.7,10,0.66,13,-999,32.0,2,1,3,-3.0,0.0,3.0,-1.0,0.0,-1.0,10
41,3,3195.64,71,3668.97,3670.49,4.7,B,right,0.72,11,0.68,14,0.88,9,0.58,35,-999,2.0,1,3,2,-3.0,0.0,3.0,-1.0,3.0,0.0,101
41,3,3195.64,72,3675.54,3677.06,3.21,B,right,0.78,10,0.68,15,0.76,9,0.66,14,-999,31.0,1,3,2,3.0,-1.0,3.0,0.0,0.0,0.0,1
41,3,3195.64,73,3680.6,3682.12,4.84,B,right,0.32,31,0.48,20,0.85,11,-999.0,-999,-999,99.0,1,3,2,0.0,0.0,0.0,0.0,0.0,0.0,0
41,3,3195.64,74,3687.3,3688.82,5.68,C,left,0.78,11,0.65,14,0.82,8,0.52,34,-999,2.0,2,3,1,3.0,0.0,0.0,-1.0,-3.0,-1.0,0
41,3,3195.64,75,3694.83,3696.35,2.62,B,right,0.72,10,0.65,15,0.7,9,0.63,14,-999,31.0,2,3,1,-3.0,-1.0,0.0,0.0,3.0,-1.0,11
