subject,block,block_onset,trial,fixation_cross_onset,trial_onset,rt,choice,key,pA,mA,pB,mB,pCA,mCA,pCB,mCB,missing,condition,position_A,position_B,position_C,noise_Ap,noise_Am,noise_Bp,noise_Bm,noise_Cp,noise_Cm,attribute_positions
29,Practice,318.25,P1,318.45,319.96,4.53,A,right,0.78,7,0.62,17,0.85,3,0.55,24,-999,2.0,3,1,2,3.0,-2.0,-3.0,2.0,0.0,-1.0,1
29,Practice,318.25,P2,324.84,326.36,6.85,C,right,0.72,7,0.62,16,0.88,5,0.58,26,-999,2.0,1,2,3,-3.0,-2.0,-3.0,1.0,3.0,1.0,10
29,Practice,318.25,P3,333.56,335.07,12.67,A,mid,0.75,11,0.68,13,0.85,4,0.55,25,-999,1.0,2,3,1,0.0,2.0,3.0,-2.0,0.0,0.0,110
29,Practice,318.25,P4,348.1,349.62,4.47,A,right,0.75,9,0.65,15,0.88,5,0.58,26,-999,1.0,3,1,2,0.0,0.0,0.0,0.0,3.0,1.0,100
29,Practice,318.25,P5,354.44,355.95,6.99,B,right,0.72,11,0.62,13,0.85,6,0.55,27,-999,1.0,1,3,2,-3.0,2.0,-3.0,-2.0,0.0,2.0,101
29,Practice,318.25,P6,363.28,364.8,7.04,B,right,0.78,7,0.62,13,0.82,6,0.52,27,-999,2.0,2,3,1,3.0,-2.0,-3.0,-2.0,-3.0,2.0,110
29,Practice,318.25,P7,372.18,373.7,6.15,C,right,0.75,7,0.65,17,0.85,5,0.55,26,-999,2.0,2,1,3,0.0,-2.0,0.0,2.0,0.0,1.0,111
29,Practice,318.25,P8,380.19,381.71,6.19,B,left,0.72,8,0.68,15,0.82,6,0.52,27,-999,2.0,3,1,2,-3.0,-1.0,3.0,0.0,-3.0,2.0,110
29,Practice,318.25,P9,388.24,389.76,6.54,A,right,0.78,8,0.62,16,0.88,5,0.58,26,-999,1.0,3,1,2,3.0,-1.0,-3.0,1.0,3.0,1.0,1
29,Practice,318.25,P10,396.65,398.17,5.81,A,left,0.75,10,0.65,16,0.82,2,0.52,23,-999,2.0,1,2,3,0.0,1.0,0.0,1.0,-3.0,-2.0,101
29,Practice,318.25,P11,404.32,405.84,5.0,B,right,0.72,8,0.65,15,0.85,5,0.55,26,-999,2.0,2,3,1,-3.0,-1.0,0.0,0.0,0.0,1.0,0
29,Practice,318.25,P12,411.18,412.7,5.38,B,right,0.72,8,0.68,15,0.85,5,0.55,26,-999,1.0,2,3,1,-3.0,-1.0,3.0,0.0,0.0,1.0,101
29,Practice,318.25,P13,418.41,419.93,4.28,A,mid,0.78,11,0.68,16,0.88,5,0.58,26,-999,1.0,2,1,3,3.0,2.0,3.0,1.0,3.0,1.0,111
29,Practice,318.25,P14,424.66,426.18,2.12,A,right,0.72,11,0.62,17,0.82,3,0.52,24,-999,2.0,3,2,1,-3.0,2.0,-3.0,2.0,-3.0,-1.0,0
29,Practice,318.25,P15,428.65,430.16,4.1,B,right,0.78,7,0.68,14,0.88,5,0.58,26,-999,2.0,2,3,1,3.0,-2.0,3.0,-1.0,3.0,1.0,10
29,Practice,318.25,P16,434.59,436.11,4.3,B,left,0.78,7,0.65,13,0.82,2,0.52,23,-999,2.0,2,1,3,3.0,-2.0,0.0,-2.0,-3.0,-2.0,1
29,Practice,318.25,P17,440.74,442.26,4.15,B,mid,0.72,10,0.65,13,0.82,5,0.52,26,-999,2.0,3,2,1,-3.0,1.0,0.0,-2.0,-3.0,1.0,110
29,Practice,318.25,P18,446.76,448.27,3.33,C,mid,0.78,7,0.68,13,0.88,2,0.58,23,-999,2.0,3,1,2,3.0,-2.0,3.0,-2.0,3.0,-2.0,10
29,Practice,318.25,P19,451.94,453.45,6.25,A,right,0.78,11,0.62,15,0.85,4,0.55,25,-999,1.0,3,1,2,3.0,2.0,-3.0,0.0,0.0,0.0,110
29,Practice,318.25,P20,460.04,461.55,7.68,B,right,0.72,7,0.65,14,0.88,4,0.58,25,-999,1.0,1,3,2,-3.0,-2.0,0.0,-1.0,3.0,0.0,11
29,Practice,318.25,P21,469.56,471.08,5.37,A,right,0.78,9,0.65,16,0.85,2,0.55,23,-999,1.0,3,1,2,3.0,0.0,0.0,1.0,0.0,-2.0,0
29,Practice,318.25,P22,476.8,478.31,4.42,B,right,0.72,9,0.62,15,0.85,2,0.55,23,-999,1.0,1,3,2,-3.0,0.0,-3.0,0.0,0.0,-2.0,10
29,Practice,318.25,P23,483.08,484.59,6.71,C,mid,0.72,7,0.65,13,0.88,3,0.58,24,-999,1.0,3,1,2,-3.0,-2.0,0.0,-2.0,3.0,-1.0,100
29,Practice,318.25,P24,491.64,493.16,4.6,B,left,0.78,7,0.65,13,0.82,5,0.52,26,-999,2.0,2,1,3,3.0,-2.0,0.0,-2.0,-3.0,1.0,10
29,Practice,318.25,P25,498.09,499.61,4.33,A,mid,0.78,10,0.68,13,0.85,4,0.55,25,-999,1.0,2,3,1,3.0,1.0,3.0,-2.0,0.0,0.0,111
29,Estimation1,781.2,E1,781.27,782.78,5.57,A,mid,0.75,11,0.65,15,0.85,-999,0.55,20,3,,2,1,3,,,,,,,11
29,Estimation1,781.2,E2,788.7,790.21,7.57,B,right,0.75,8,0.65,15,0.85,-999,0.55,20,1,2.0,1,3,2,,,,,,,101
29,Estimation1,781.2,E3,798.13,799.64,7.05,A,right,0.75,8,0.65,15,0.85,-999,0.55,28,3,,3,1,2,,,,,,,100
29,Estimation1,781.2,E4,807.03,808.54,4.55,C,left,0.75,6,0.65,15,0.85,-999,0.55,28,1,2.0,2,3,1,,,,,,,101
29,Estimation1,781.2,E5,813.42,814.94,4.3,B,mid,0.75,6,0.65,15,0.85,-999,0.55,24,3,,1,2,3,,,,,,,1
29,Estimation1,781.2,E6,819.59,821.1,7.48,C,right,0.75,7,0.65,15,0.85,-999,0.55,24,1,2.0,2,1,3,,,,,,,101
29,Estimation1,781.2,E7,828.93,830.45,7.22,B,mid,0.75,7,0.65,15,0.85,-999,0.55,22,3,,1,2,3,,,,,,,100
29,Estimation1,781.2,E8,838.01,839.53,6.04,B,right,0.75,8,0.65,15,0.85,-999,0.55,22,1,2.0,2,3,1,,,,,,,100
29,Estimation1,781.2,E9,845.91,847.43,3.32,B,mid,0.75,8,0.65,15,0.85,-999,0.55,23,3,,3,2,1,,,,,,,100
29,Estimation1,781.2,E10,851.09,852.61,5.42,C,mid,0.75,8,0.65,15,0.85,4,0.55,23,1,2.0,1,3,2,,,,,,,0
29,Estimation1,781.2,E11,858.38,859.89,5.23,A,left,0.75,8,0.65,15,0.85,4,0.55,23,2,1.0,1,2,3,,,,,,,101
29,Estimation1,781.2,E12,865.46,866.97,5.07,B,left,0.75,8,0.65,15,0.85,5,0.55,23,1,2.0,2,1,3,,,,,,,110
29,Estimation1,781.2,E13,872.39,873.9,8.01,A,mid,0.75,8,0.65,15,0.85,5,0.55,23,2,1.0,2,1,3,,,,,,,11
29,Estimation1,781.2,E14,882.25,883.77,6.95,C,right,0.75,8,0.65,15,0.85,6,0.55,23,1,2.0,1,2,3,,,,,,,100
29,Estimation1,781.2,E15,891.06,892.58,4.72,C,right,0.75,8,0.65,15,0.85,6,0.55,23,2,1.0,2,1,3,,,,,,,110
29,1,899.65,1,899.73,901.24,6.06,B,left,0.78,8,0.62,15,0.76,7,0.6,14,-999,32.0,2,1,3,3.0,0.0,-3.0,0.0,3.0,0.0,111
29,1,899.65,2,907.64,909.16,9.84,B,right,0.78,8,0.65,14,0.82,5,0.52,22,-999,1.0,1,3,2,3.0,0.0,0.0,-1.0,-3.0,-1.0,110
29,1,899.65,3,919.34,920.86,10.85,B,right,0.78,8,0.68,15,0.76,7,0.66,14,-999,31.0,1,3,2,3.0,0.0,3.0,0.0,0.0,0.0,111
29,1,899.65,4,932.05,933.57,14.01,B,mid,0.72,7,0.65,15,0.88,5,0.58,22,-999,2.0,3,2,1,-3.0,-1.0,0.0,0.0,3.0,-1.0,111
29,1,899.65,5,947.91,949.43,7.43,A,left,0.78,8,0.65,15,0.76,7,0.63,14,-999,32.0,1,3,2,3.0,0.0,0.0,0.0,0.0,0.0,101
29,1,899.65,6,957.21,958.73,7.11,B,mid,0.78,7,0.62,15,0.76,6,0.6,14,-999,32.0,1,2,3,3.0,-1.0,-3.0,0.0,-3.0,-1.0,101
29,1,899.65,7,966.17,967.69,5.1,B,mid,0.72,7,0.62,15,0.7,6,0.6,14,-999,32.0,3,2,1,-3.0,-1.0,-3.0,0.0,-3.0,-1.0,1
29,1,899.65,8,973.14,974.65,4.65,B,right,0.78,7,0.68,15,0.85,5,0.55,22,-999,1.0,1,3,2,3.0,-1.0,3.0,0.0,0.0,-1.0,100
29,1,899.65,9,979.64,981.15,4.59,C,left,0.31,32,0.38,26,0.85,11,-999.0,-999,-999,99.0,2,3,1,0.0,0.0,0.0,0.0,0.0,0.0,101
29,1,899.65,10,986.08,987.6,6.11,B,mid,0.75,7,0.68,14,0.85,5,0.55,22,-999,2.0,3,2,1,0.0,-1.0,3.0,-1.0,0.0,-1.0,111
29,1,899.65,11,994.05,995.57,6.67,B,right,0.72,7,0.62,14,0.88,6,0.58,23,-999,2.0,1,3,2,-3.0,-1.0,-3.0,-1.0,3.0,0.0,101
29,1,899.65,12,1002.58,1004.1,7.97,C,mid,0.72,7,0.68,14,0.85,6,0.55,23,-999,2.0,3,1,2,-3.0,-1.0,3.0,-1.0,0.0,0.0,0
29,1,899.65,13,1012.41,1013.93,6.93,C,mid,0.32,31,0.48,20,0.85,11,-999.0,-999,-999,99.0,3,1,2,0.0,0.0,0.0,0.0,0.0,0.0,0
29,1,899.65,14,1021.19,1022.71,3.56,B,left,0.75,7,0.65,14,0.73,6,0.63,13,-999,32.0,3,1,2,0.0,-1.0,0.0,-1.0,3.0,0.0,111
29,1,899.65,15,1026.61,1028.12,4.09,B,left,0.75,7,0.68,14,0.73,6,0.66,13,-999,32.0,3,1,2,0.0,-1.0,3.0,-1.0,0.0,0.0,10
29,1,899.65,16,1032.55,1034.07,8.38,A,right,0.78,7,0.62,15,0.76,6,0.6,14,-999,31.0,3,2,1,3.0,-1.0,-3.0,0.0,0.0,0.0,110
29,1,899.65,17,1042.78,1044.3,5.15,C,right,0.75,8,0.65,15,0.85,6,0.55,23,-999,1.0,2,1,3,0.0,0.0,0.0,0.0,0.0,0.0,0
29,1,899.65,18,1049.78,1051.3,2.57,B,left,0.72,8,0.68,15,0.82,5,0.52,22,-999,1.0,2,1,3,-3.0,0.0,3.0,0.0,-3.0,-1.0,11
29,1,899.65,19,1054.21,1055.73,9.61,B,left,0.72,8,0.65,14,0.7,7,0.63,13,-999,32.0,2,1,3,-3.0,0.0,0.0,-1.0,3.0,0.0,101
29,1,899.65,20,1065.68,1067.19,5.65,B,left,0.72,8,0.68,15,0.82,6,0.52,23,-999,2.0,2,1,3,-3.0,0.0,3.0,0.0,-3.0,0.0,1
29,1,899.65,21,1073.19,1074.71,6.24,C,left,0.75,8,0.62,15,0.88,5,0.58,22,-999,1.0,2,3,1,0.0,0.0,-3.0,0.0,3.0,-1.0,11
29,1,899.65,22,1081.29,1082.8,8.07,A,left,0.72,8,0.65,15,0.7,7,0.63,14,-999,31.0,1,2,3,-3.0,0.0,0.0,0.0,-3.0,-1.0,100
29,1,899.65,23,1091.22,1092.73,6.1,B,right,0.72,8,0.65,15,0.82,5,0.52,22,-999,2.0,1,3,2,-3.0,0.0,0.0,0.0,-3.0,-1.0,11
29,1,899.65,24,1099.18,1100.7,8.67,B,mid,0.75,8,0.62,14,0.88,6,0.58,23,-999,2.0,1,2,3,0.0,0.0,-3.0,-1.0,3.0,0.0,101
29,1,899.65,25,1109.71,1111.23,7.06,B,mid,0.75,8,0.65,14,0.85,5,0.55,22,-999,2.0,1,2,3,0.0,0.0,0.0,-1.0,0.0,-1.0,111
29,1,899.65,26,1118.63,1120.14,8.0,C,right,0.75,8,0.65,15,0.82,5,0.52,22,-999,1.0,2,1,3,0.0,0.0,0.0,0.0,-3.0,-1.0,101
29,1,899.65,27,1128.49,1130.01,5.88,B,right,0.78,7,0.62,14,0.76,6,0.6,13,-999,32.0,2,3,1,3.0,-1.0,-3.0,-1.0,0.0,-1.0,100
29,1,899.65,28,1136.22,1137.74,3.89,B,left,0.72,7,0.65,14,0.7,6,0.63,13,-999,31.0,2,1,3,-3.0,-1.0,0.0,-1.0,3.0,-1.0,0
29,1,899.65,29,1141.97,1143.48,4.36,B,right,0.72,8,0.68,15,0.82,5,0.52,22,-999,1.0,2,3,1,-3.0,0.0,3.0,0.0,-3.0,-1.0,110
29,1,899.65,30,1148.18,1149.7,7.32,B,mid,0.75,7,0.68,15,0.88,6,0.58,23,-999,1.0,1,2,3,0.0,-1.0,3.0,0.0,3.0,0.0,10
29,1,899.65,31,1157.35,1158.86,3.14,B,right,0.72,8,0.62,15,0.7,7,0.6,14,-999,32.0,1,3,2,-3.0,0.0,-3.0,0.0,3.0,-1.0,100
29,1,899.65,32,1162.35,1163.86,6.13,B,left,0.75,7,0.68,14,0.73,6,0.66,13,-999,31.0,3,1,2,0.0,-1.0,3.0,-1.0,0.0,-1.0,110
29,1,899.65,33,1170.33,1171.84,2.18,B,right,0.75,8,0.65,14,0.73,7,0.63,13,-999,31.0,2,3,1,0.0,0.0,0.0,-1.0,0.0,0.0,0
29,1,899.65,34,1174.36,1175.87,4.85,B,left,0.78,8,0.65,15,0.76,7,0.63,14,-999,32.0,2,1,3,3.0,0.0,0.0,0.0,-3.0,-1.0,111
29,1,899.65,35,1181.07,1182.59,7.87,C,right,0.19,52,0.59,16,0.81,12,-999.0,-999,-999,99.0,1,2,3,0.0,0.0,0.0,0.0,0.0,0.0,100
29,1,899.65,36,1190.79,1192.3,8.47,A,left,0.78,7,0.68,15,0.88,6,0.58,23,-999,1.0,1,2,3,3.0,-1.0,3.0,0.0,3.0,0.0,110
29,1,899.65,37,1201.12,1202.63,5.43,C,right,0.28,35,0.67,14,0.78,12,-999.0,-999,-999,99.0,1,2,3,0.0,0.0,0.0,0.0,0.0,0.0,11
29,1,899.65,38,1252.25,1253.77,5.77,A,right,0.78,8,0.65,14,0.82,6,0.52,23,-999,1.0,3,1,2,3.0,0.0,0.0,-1.0,-3.0,0.0,110
29,1,899.65,39,1259.88,1261.4,7.14,B,left,0.72,8,0.62,15,0.7,7,0.6,14,-999,32.0,2,1,3,-3.0,0.0,-3.0,0.0,0.0,0.0,110
29,1,899.65,40,1268.88,1270.39,3.42,B,right,0.75,7,0.62,15,0.88,6,0.58,23,-999,1.0,1,3,2,0.0,-1.0,-3.0,0.0,3.0,0.0,1
29,1,899.65,41,1274.16,1275.68,3.47,B,mid,0.75,7,0.65,15,0.73,6,0.63,14,-999,31.0,1,2,3,0.0,-1.0,0.0,0.0,3.0,-1.0,110
29,1,899.65,42,1279.49,1281.01,2.33,B,left,0.75,8,0.65,15,0.73,7,0.63,14,-999,31.0,3,1,2,0.0,0.0,0.0,0.0,0.0,0.0,10
29,1,899.65,43,1283.67,1285.19,2.05,A,right,0.78,8,0.68,15,0.82,6,0.52,23,-999,1.0,3,2,1,3.0,0.0,3.0,0.0,-3.0,0.0,1
29,1,899.65,44,1287.57,1289.09,4.23,C,right,0.24,41,0.37,27,0.76,13,-999.0,-999,-999,99.0,2,1,3,0.0,0.0,0.0,0.0,0.0,0.0,10
29,1,899.65,45,1293.65,1295.17,4.23,B,right,0.72,7,0.65,15,0.85,6,0.55,23,-999,2.0,2,3,1,-3.0,-1.0,0.0,0.0,0.0,0.0,11
29,1,899.65,46,1299.74,1301.25,7.66,C,right,0.16,62,0.46,21,0.87,11,-999.0,-999,-999,99.0,1,2,3,0.0,0.0,0.0,0.0,0.0,0.0,10
29,1,899.65,47,1309.25,1310.77,7.63,B,mid,0.72,8,0.62,14,0.85,6,0.55,23,-999,2.0,1,2,3,-3.0,0.0,-3.0,-1.0,0.0,0.0,11
29,1,899.65,48,1318.75,1320.26,6.7,C,left,0.78,8,0.62,14,0.85,6,0.55,23,-999,2.0,3,2,1,3.0,0.0,-3.0,-1.0,0.0,0.0,0
29,1,899.65,49,1327.31,1328.83,3.87,B,left,0.75,7,0.62,15,0.73,6,0.6,14,-999,32.0,2,1,3,0.0,-1.0,-3.0,0.0,-3.0,0.0,1
29,1,899.65,50,1333.03,1334.54,9.46,A,mid,0.75,8,0.65,15,0.73,7,0.63,14,-999,31.0,2,1,3,0.0,0.0,0.0,0.0,0.0,-1.0,10
29,1,899.65,51,1344.34,1345.85,4.07,B,mid,0.78,7,0.68,14,0.76,6,0.66,13,-999,32.0,1,2,3,3.0,-1.0,3.0,-1.0,3.0,-1.0,0
29,1,899.65,52,1350.27,1351.79,7.08,A,mid,0.78,8,0.62,14,0.76,7,0.6,13,-999,31.0,2,1,3,3.0,0.0,-3.0,-1.0,-3.0,0.0,100
29,1,899.65,53,1359.22,1360.73,4.35,B,mid,0.78,8,0.65,14,0.82,5,0.52,22,-999,2.0,1,2,3,3.0,0.0,0.0,-1.0,-3.0,-1.0,0
29,1,899.65,54,1365.43,1366.95,5.55,C,left,0.19,52,0.56,17,0.8,12,-999.0,-999,-999,99.0,2,3,1,0.0,0.0,0.0,0.0,0.0,0.0,10
29,1,899.65,55,1372.83,1374.34,4.76,B,mid,0.78,7,0.62,15,0.85,5,0.55,22,-999,1.0,1,2,3,3.0,-1.0,-3.0,0.0,0.0,-1.0,101
29,1,899.65,56,1379.44,1380.96,2.59,B,right,0.72,7,0.65,15,0.7,6,0.63,14,-999,31.0,1,3,2,-3.0,-1.0,0.0,0.0,3.0,-1.0,111
29,1,899.65,57,1383.89,1385.41,1.97,B,left,0.72,7,0.65,15,0.7,6,0.63,14,-999,31.0,2,1,3,-3.0,-1.0,0.0,0.0,3.0,-1.0,100
29,1,899.65,58,1387.72,1389.24,2.04,C,mid,0.72,8,0.68,14,0.88,6,0.58,23,-999,2.0,3,1,2,-3.0,0.0,3.0,-1.0,3.0,0.0,110
29,1,899.65,59,1391.62,1393.14,4.58,C,left,0.27,37,0.61,16,0.89,11,-999.0,-999,-999,99.0,3,2,1,0.0,0.0,0.0,0.0,0.0,0.0,1
29,1,899.65,60,1398.05,1399.57,2.77,B,left,0.78,8,0.68,15,0.88,5,0.58,22,-999,1.0,3,1,2,3.0,0.0,3.0,0.0,3.0,-1.0,111
29,1,899.65,61,1402.69,1404.2,4.07,B,mid,0.72,8,0.68,14,0.7,7,0.66,13,-999,32.0,3,2,1,-3.0,0.0,3.0,-1.0,0.0,-1.0,0
29,1,899.65,62,1408.62,1410.13,2.62,C,right,0.27,37,0.47,21,0.86,11,-999.0,-999,-999,99.0,1,2,3,0.0,0.0,0.0,0.0,0.0,0.0,0
29,1,899.65,63,1413.1,1414.62,3.41,C,left,0.29,34,0.42,23,0.72,13,-999.0,-999,-999,99.0,2,3,1,0.0,0.0,0.0,0.0,0.0,0.0,110
29,1,899.65,64,1418.36,1419.88,4.08,B,left,0.72,7,0.68,14,0.7,6,0.66,13,-999,31.0,2,1,3,-3.0,-1.0,3.0,-1.0,-3.0,0.0,101
29,1,899.65,65,1424.3,1425.81,6.42,B,left,0.72,7,0.68,15,0.88,6,0.58,23,-999,2.0,2,1,3,-3.0,-1.0,3.0,0.0,3.0,0.0,111
29,1,899.65,66,1432.58,1434.09,4.62,B,right,0.72,8,0.62,14,0.7,7,0.6,13,-999,32.0,1,3,2,-3.0,0.0,-3.0,-1.0,0.0,0.0,10
29,1,899.65,67,1439.04,1440.56,5.85,B,mid,0.72,8,0.62,15,0.7,7,0.6,14,-999,31.0,1,2,3,-3.0,0.0,-3.0,0.0,0.0,-1.0,111
29,1,899.65,68,1446.74,1448.26,1.98,B,left,0.75,8,0.65,14,0.73,7,0.63,13,-999,31.0,3,1,2,0.0,0.0,0.0,-1.0,-3.0,-1.0,111
29,1,899.65,69,1450.57,1452.09,2.89,B,mid,0.78,7,0.68,15,0.76,6,0.66,14,-999,31.0,3,2,1,3.0,-1.0,3.0,0.0,0.0,0.0,100
29,1,899.65,70,1455.32,1456.84,8.27,C,mid,0.75,7,0.62,15,0.88,5,0.58,22,-999,2.0,3,1,2,0.0,-1.0,-3.0,0.0,3.0,-1.0,0
29,1,899.65,71,1465.45,1466.97,7.35,B,right,0.78,8,0.62,14,0.85,5,0.55,22,-999,1.0,1,3,2,3.0,0.0,-3.0,-1.0,0.0,-1.0,110
29,1,899.65,72,1474.66,1476.18,8.26,A,right,0.72,8,0.65,15,0.82,5,0.52,22,-999,1.0,3,1,2,-3.0,0.0,0.0,0.0,-3.0,-1.0,110
29,1,899.65,73,1484.78,1486.29,3.89,C,right,0.32,31,0.6,16,0.78,12,-999.0,-999,-999,99.0,2,1,3,0.0,0.0,0.0,0.0,0.0,0.0,110
29,1,899.65,74,1490.52,1492.04,3.31,A,right,0.78,7,0.65,15,0.76,6,0.63,14,-999,32.0,3,2,1,3.0,-1.0,0.0,0.0,-3.0,-1.0,110
29,1,899.65,75,1495.69,1497.21,4.25,B,mid,0.72,8,0.62,14,0.85,6,0.55,23,-999,2.0,3,2,1,-3.0,0.0,-3.0,-1.0,0.0,0.0,100
29,Estimation2,1636.96,E1,1637.03,1638.54,4.61,A,mid,0.75,11,0.65,15,0.85,-999,0.55,20,3,,2,1,3,,,,,,,110
29,Estimation2,1636.96,E2,1643.61,1645.13,5.71,B,mid,0.75,8,0.65,15,0.85,-999,0.55,20,1,2.0,1,2,3,,,,,,,0
29,Estimation2,1636.96,E3,1651.29,1652.81,3.17,B,left,0.75,8,0.65,15,0.85,-999,0.55,28,3,,3,1,2,,,,,,,1
29,Estimation2,1636.96,E4,1656.56,1658.07,3.15,C,mid,0.75,10,0.65,15,0.85,-999,0.55,28,1,2.0,1,3,2,,,,,,,1
29,Estimation2,1636.96,E5,1661.69,1663.2,9.09,B,right,0.75,10,0.65,15,0.85,-999,0.55,24,3,,1,3,2,,,,,,,0
29,Estimation2,1636.96,E6,1672.85,1674.37,3.11,C,right,0.75,11,0.65,15,0.85,-999,0.55,24,1,2.0,1,2,3,,,,,,,0
29,Estimation2,1636.96,E7,1678.03,1679.55,9.64,A,right,0.75,11,0.65,15,0.85,-999,0.55,22,3,,3,1,2,,,,,,,101
29,Estimation2,1636.96,E8,1689.64,1691.16,5.24,B,left,0.75,11,0.65,15,0.85,6,0.55,22,1,2.0,3,1,2,,,,,,,10
29,Estimation2,1636.96,E9,1696.98,1698.49,4.03,A,right,0.75,11,0.65,15,0.85,6,0.55,23,2,1.0,3,2,1,,,,,,,110
29,Estimation2,1636.96,E10,1702.97,1704.49,2.8,C,mid,0.75,11,0.65,15,0.85,8,0.55,23,1,2.0,3,1,2,,,,,,,110
29,Estimation2,1636.96,E11,1707.74,1709.26,1.63,A,left,0.75,11,0.65,15,0.85,8,0.55,23,2,1.0,1,2,3,,,,,,,101
29,Estimation2,1636.96,E12,1711.35,1712.87,2.3,C,mid,0.75,11,0.65,15,0.85,9,0.55,23,1,2.0,3,1,2,,,,,,,110
29,Estimation2,1636.96,E13,1715.62,1717.14,3.05,C,mid,0.75,11,0.65,15,0.85,9,0.55,23,2,1.0,1,3,2,,,,,,,101
29,2,1722.62,1,1722.7,1724.22,8.26,A,left,0.72,10,0.68,14,0.85,9,0.55,23,-999,2.0,1,3,2,-3.0,-1.0,3.0,-1.0,0.0,0.0,111
29,2,1722.62,2,1732.93,1734.45,5.13,A,mid,0.72,11,0.62,14,0.85,9,0.55,23,-999,2.0,2,1,3,-3.0,0.0,-3.0,-1.0,0.0,0.0,11
29,2,1722.62,3,1740.03,1741.55,4.88,A,mid,0.72,10,0.68,15,0.88,9,0.58,23,-999,2.0,2,1,3,-3.0,-1.0,3.0,0.0,3.0,0.0,100
29,2,1722.62,4,1746.88,1748.39,3.08,B,mid,0.75,10,0.62,15,0.73,9,0.6,14,-999,32.0,3,2,1,0.0,-1.0,-3.0,0.0,-3.0,0.0,0
29,2,1722.62,5,1751.93,1753.44,4.06,A,mid,0.75,10,0.68,14,0.73,9,0.66,13,-999,32.0,2,3,1,0.0,-1.0,3.0,-1.0,0.0,0.0,111
29,2,1722.62,6,1757.96,1759.47,7.23,A,right,0.78,11,0.62,14,0.85,9,0.55,23,-999,2.0,3,2,1,3.0,0.0,-3.0,-1.0,0.0,0.0,0
29,2,1722.62,7,1767.15,1768.67,11.27,A,mid,0.72,11,0.65,15,0.7,10,0.63,14,-999,31.0,2,1,3,-3.0,0.0,0.0,0.0,-3.0,-1.0,1
29,2,1722.62,8,1780.4,1781.92,4.76,A,right,0.72,10,0.65,15,0.7,9,0.63,14,-999,31.0,3,2,1,-3.0,-1.0,0.0,0.0,3.0,-1.0,10
29,2,1722.62,9,1787.11,1788.63,3.18,C,mid,0.75,10,0.62,15,0.88,9,0.58,23,-999,1.0,3,1,2,0.0,-1.0,-3.0,0.0,3.0,0.0,110
29,2,1722.62,10,1792.26,1793.78,5.14,B,left,0.72,11,0.68,15,0.82,9,0.52,23,-999,2.0,3,1,2,-3.0,0.0,3.0,0.0,-3.0,0.0,0
29,2,1722.62,11,1799.38,1800.89,4.11,A,mid,0.75,11,0.65,14,0.73,10,0.63,13,-999,31.0,2,1,3,0.0,0.0,0.0,-1.0,-3.0,-1.0,110
29,2,1722.62,12,1805.44,1806.96,3.87,A,right,0.72,11,0.65,15,0.82,8,0.52,22,-999,2.0,3,1,2,-3.0,0.0,0.0,0.0,-3.0,-1.0,110
29,2,1722.62,13,1811.27,1812.79,3.45,A,left,0.72,11,0.62,15,0.7,10,0.6,14,-999,31.0,1,3,2,-3.0,0.0,-3.0,0.0,0.0,-1.0,0
29,2,1722.62,14,1816.69,1818.2,4.91,A,right,0.75,11,0.65,15,0.73,10,0.63,14,-999,31.0,3,2,1,0.0,0.0,0.0,0.0,0.0,-1.0,1
29,2,1722.62,15,1823.57,1825.09,8.52,C,left,0.27,37,0.47,21,0.86,11,-999.0,-999,-999,99.0,2,3,1,0.0,0.0,0.0,0.0,0.0,0.0,11
29,2,1722.62,16,1834.07,1835.58,4.87,C,mid,0.32,31,0.48,20,0.85,11,-999.0,-999,-999,99.0,1,3,2,0.0,0.0,0.0,0.0,0.0,0.0,10
29,2,1722.62,17,1840.78,1842.3,4.95,A,right,0.75,10,0.65,14,0.73,9,0.63,13,-999,32.0,3,2,1,0.0,-1.0,0.0,-1.0,3.0,0.0,10
29,2,1722.62,18,1847.71,1849.23,5.6,A,right,0.78,10,0.62,15,0.76,9,0.6,14,-999,31.0,3,1,2,3.0,-1.0,-3.0,0.0,0.0,0.0,11
29,2,1722.62,19,1855.29,1856.81,3.72,A,mid,0.78,11,0.65,15,0.76,10,0.63,14,-999,32.0,2,3,1,3.0,0.0,0.0,0.0,-3.0,-1.0,101
29,2,1722.62,20,1860.97,1862.49,4.69,B,mid,0.72,11,0.68,14,0.7,10,0.66,13,-999,32.0,3,2,1,-3.0,0.0,3.0,-1.0,0.0,-1.0,10
29,2,1722.62,21,1867.64,1869.15,8.27,A,right,0.75,11,0.65,15,0.82,8,0.52,22,-999,1.0,3,2,1,0.0,0.0,0.0,0.0,-3.0,-1.0,111
29,2,1722.62,22,1878.0,1879.52,5.91,A,right,0.78,11,0.68,15,0.76,10,0.66,14,-999,31.0,3,1,2,3.0,0.0,3.0,0.0,0.0,0.0,10
29,2,1722.62,23,1885.88,1887.4,5.79,B,right,0.72,11,0.62,15,0.7,10,0.6,14,-999,32.0,2,3,1,-3.0,0.0,-3.0,0.0,0.0,0.0,100
29,2,1722.62,24,1893.78,1895.3,3.56,A,left,0.72,10,0.65,14,0.7,9,0.63,13,-999,31.0,1,2,3,-3.0,-1.0,0.0,-1.0,3.0,-1.0,11
29,2,1722.62,25,1899.31,1900.83,3.04,B,right,0.78,10,0.68,15,0.76,9,0.66,14,-999,31.0,2,3,1,3.0,-1.0,3.0,0.0,0.0,0.0,1
29,2,1722.62,26,1904.33,1905.84,2.55,B,right,0.78,10,0.62,14,0.76,9,0.6,13,-999,32.0,1,3,2,3.0,-1.0,-3.0,-1.0,0.0,-1.0,0
29,2,1722.62,27,1908.84,1910.36,2.28,B,left,0.72,11,0.65,15,0.82,8,0.52,22,-999,1.0,3,1,2,-3.0,0.0,0.0,0.0,-3.0,-1.0,100
29,2,1722.62,28,1913.09,1914.61,2.97,B,mid,0.78,11,0.68,15,0.82,9,0.52,23,-999,1.0,1,2,3,3.0,0.0,3.0,0.0,-3.0,0.0,0
29,2,1722.62,29,1918.04,1919.56,3.88,C,right,0.27,37,0.61,16,0.89,11,-999.0,-999,-999,99.0,2,1,3,0.0,0.0,0.0,0.0,0.0,0.0,10
29,2,1722.62,30,1923.9,1925.42,2.52,B,right,0.72,11,0.62,15,0.7,10,0.6,14,-999,32.0,1,3,2,-3.0,0.0,-3.0,0.0,3.0,-1.0,111
29,2,1722.62,31,1928.39,1929.9,4.64,A,left,0.75,10,0.62,15,0.88,8,0.58,22,-999,2.0,1,2,3,0.0,-1.0,-3.0,0.0,3.0,-1.0,10
29,2,1722.62,32,1935.0,1936.52,6.12,A,right,0.75,11,0.65,14,0.73,10,0.63,13,-999,31.0,3,2,1,0.0,0.0,0.0,-1.0,0.0,0.0,100
29,2,1722.62,33,1943.08,1944.6,5.77,A,left,0.72,10,0.65,15,0.7,9,0.63,14,-999,31.0,1,2,3,-3.0,-1.0,0.0,0.0,3.0,-1.0,101
29,2,1722.62,34,1950.83,1952.35,5.97,C,mid,0.32,31,0.6,16,0.78,12,-999.0,-999,-999,99.0,1,3,2,0.0,0.0,0.0,0.0,0.0,0.0,11
29,2,1722.62,35,1958.78,1960.29,3.24,C,mid,0.19,52,0.56,17,0.8,12,-999.0,-999,-999,99.0,1,3,2,0.0,0.0,0.0,0.0,0.0,0.0,11
29,2,1722.62,36,1963.99,1965.51,5.74,C,mid,0.75,10,0.68,15,0.88,9,0.58,23,-999,1.0,3,1,2,0.0,-1.0,3.0,0.0,3.0,0.0,111
29,2,1722.62,37,1971.71,1973.22,4.57,A,left,0.78,10,0.62,15,0.76,9,0.6,14,-999,32.0,1,3,2,3.0,-1.0,-3.0,0.0,-3.0,-1.0,111
29,2,1722.62,38,1989.17,1990.68,3.93,C,right,0.31,32,0.38,26,0.85,11,-999.0,-999,-999,99.0,2,1,3,0.0,0.0,0.0,0.0,0.0,0.0,10
29,2,1722.62,39,1995.06,1996.58,2.46,A,left,0.72,10,0.62,15,0.7,9,0.6,14,-999,32.0,1,2,3,-3.0,-1.0,-3.0,0.0,-3.0,-1.0,0
29,2,1722.62,40,1999.48,2001.0,2.39,A,right,0.78,11,0.65,14,0.82,8,0.52,22,-999,2.0,3,1,2,3.0,0.0,0.0,-1.0,-3.0,-1.0,0
29,2,1722.62,41,2003.83,2005.34,4.55,A,left,0.75,11,0.62,14,0.88,9,0.58,23,-999,2.0,1,2,3,0.0,0.0,-3.0,-1.0,3.0,0.0,100
29,2,1722.62,42,2010.23,2011.74,2.78,A,mid,0.78,11,0.68,15,0.88,8,0.58,22,-999,1.0,2,1,3,3.0,0.0,3.0,0.0,3.0,-1.0,101
29,2,1722.62,43,2014.99,2016.51,3.58,A,left,0.78,10,0.62,15,0.85,8,0.55,22,-999,1.0,1,2,3,3.0,-1.0,-3.0,0.0,0.0,-1.0,100
29,2,1722.62,44,2020.54,2022.06,2.89,A,mid,0.72,11,0.62,14,0.85,9,0.55,23,-999,2.0,2,3,1,-3.0,0.0,-3.0,-1.0,0.0,0.0,11
29,2,1722.62,45,2025.41,2026.92,5.09,A,right,0.78,10,0.68,15,0.88,9,0.58,23,-999,1.0,3,2,1,3.0,-1.0,3.0,0.0,3.0,0.0,11
29,2,1722.62,46,2032.47,2033.99,1.91,A,mid,0.75,10,0.68,14,0.73,9,0.66,13,-999,31.0,2,1,3,0.0,-1.0,3.0,-1.0,0.0,-1.0,10
29,2,1722.62,47,2036.35,2037.87,2.22,A,left,0.72,10,0.68,14,0.7,9,0.66,13,-999,31.0,1,3,2,-3.0,-1.0,3.0,-1.0,-3.0,0.0,10
29,2,1722.62,48,2040.55,2042.07,8.96,B,left,0.78,11,0.62,15,0.76,10,0.6,14,-999,32.0,2,1,3,3.0,0.0,-3.0,0.0,3.0,0.0,110
29,2,1722.62,49,2051.48,2053.0,3.83,A,left,0.78,10,0.68,15,0.85,8,0.55,22,-999,1.0,1,3,2,3.0,-1.0,3.0,0.0,0.0,-1.0,0
29,2,1722.62,50,2057.28,2058.79,4.4,A,left,0.72,10,0.65,15,0.88,8,0.58,22,-999,2.0,1,2,3,-3.0,-1.0,0.0,0.0,3.0,-1.0,110
29,2,1722.62,51,2063.64,2065.16,4.05,C,left,0.29,34,0.42,23,0.72,13,-999.0,-999,-999,99.0,2,3,1,0.0,0.0,0.0,0.0,0.0,0.0,111
29,2,1722.62,52,2069.66,2071.17,2.65,A,mid,0.78,10,0.65,15,0.76,9,0.63,14,-999,32.0,2,1,3,3.0,-1.0,0.0,0.0,-3.0,-1.0,101
29,2,1722.62,53,2074.27,2075.79,5.51,A,right,0.78,11,0.62,14,0.76,10,0.6,13,-999,31.0,3,2,1,3.0,0.0,-3.0,-1.0,-3.0,0.0,100
29,2,1722.62,54,2081.75,2083.27,2.01,B,mid,0.72,11,0.68,15,0.82,8,0.52,22,-999,1.0,1,2,3,-3.0,0.0,3.0,0.0,-3.0,-1.0,111
29,2,1722.62,55,2085.74,2087.25,5.28,A,left,0.72,10,0.62,14,0.88,9,0.58,23,-999,2.0,1,2,3,-3.0,-1.0,-3.0,-1.0,3.0,0.0,1
29,2,1722.62,56,2092.87,2094.38,1.54,A,right,0.75,11,0.65,14,0.85,8,0.55,22,-999,2.0,3,2,1,0.0,0.0,0.0,-1.0,0.0,-1.0,0
29,2,1722.62,57,2096.38,2097.9,3.04,A,mid,0.78,11,0.65,15,0.76,10,0.63,14,-999,32.0,2,3,1,3.0,0.0,0.0,0.0,0.0,0.0,10
29,2,1722.62,58,2101.4,2102.91,3.0,C,mid,0.24,41,0.37,27,0.76,13,-999.0,-999,-999,99.0,3,1,2,0.0,0.0,0.0,0.0,0.0,0.0,111
29,2,1722.62,59,2106.38,2107.9,6.89,A,right,0.78,11,0.65,14,0.82,8,0.52,22,-999,1.0,3,2,1,3.0,0.0,0.0,-1.0,-3.0,-1.0,110
29,2,1722.62,60,2115.24,2116.76,2.13,A,left,0.75,10,0.68,14,0.85,8,0.55,22,-999,2.0,1,2,3,0.0,-1.0,3.0,-1.0,0.0,-1.0,100
29,2,1722.62,61,2119.34,2120.86,5.3,A,left,0.75,11,0.65,15,0.73,10,0.63,14,-999,31.0,1,2,3,0.0,0.0,0.0,0.0,0.0,0.0,0
29,2,1722.62,62,2126.62,2128.14,5.37,A,left,0.72,11,0.62,14,0.7,10,0.6,13,-999,32.0,1,2,3,-3.0,0.0,-3.0,-1.0,0.0,0.0,10
29,2,1722.62,63,2133.95,2135.47,6.34,A,right,0.72,10,0.65,15,0.85,9,0.55,23,-999,2.0,3,1,2,-3.0,-1.0,0.0,0.0,0.0,0.0,0
29,2,1722.62,64,2142.27,2143.78,4.67,A,mid,0.78,11,0.62,14,0.85,8,0.55,22,-999,1.0,2,3,1,3.0,0.0,-3.0,-1.0,0.0,-1.0,110
29,2,1722.62,65,2148.92,2150.43,3.5,C,left,0.16,62,0.46,21,0.87,11,-999.0,-999,-999,99.0,3,2,1,0.0,0.0,0.0,0.0,0.0,0.0,10
29,2,1722.62,66,2154.4,2155.91,4.47,A,right,0.75,11,0.65,15,0.85,9,0.55,23,-999,1.0,3,2,1,0.0,0.0,0.0,0.0,0.0,0.0,110
29,2,1722.62,67,2160.85,2162.36,5.66,A,right,0.72,11,0.68,14,0.88,9,0.58,23,-999,2.0,3,1,2,-3.0,0.0,3.0,-1.0,3.0,0.0,10
29,2,1722.62,68,2168.48,2169.99,2.59,C,right,0.78,11,0.65,14,0.82,9,0.52,23,-999,1.0,2,1,3,3.0,0.0,0.0,-1.0,-3.0,0.0,1
29,2,1722.62,69,2173.04,2174.56,6.14,C,left,0.19,52,0.59,16,0.81,12,-999.0,-999,-999,99.0,3,2,1,0.0,0.0,0.0,0.0,0.0,0.0,110
29,2,1722.62,70,2181.16,2182.67,3.28,C,mid,0.75,10,0.65,15,0.73,9,0.63,14,-999,31.0,1,3,2,0.0,-1.0,0.0,0.0,3.0,-1.0,110
29,2,1722.62,71,2186.4,2187.92,2.89,A,right,0.72,11,0.65,14,0.7,10,0.63,13,-999,32.0,3,2,1,-3.0,0.0,0.0,-1.0,3.0,0.0,110
29,2,1722.62,72,2191.27,2192.79,2.91,A,right,0.72,11,0.68,15,0.82,8,0.52,22,-999,1.0,3,2,1,-3.0,0.0,3.0,0.0,-3.0,-1.0,11
29,2,1722.62,73,2196.15,2197.67,4.28,A,left,0.75,11,0.62,15,0.88,8,0.58,22,-999,1.0,1,3,2,0.0,0.0,-3.0,0.0,3.0,-1.0,111
29,2,1722.62,74,2202.4,2203.92,4.14,C,mid,0.28,35,0.67,14,0.78,12,-999.0,-999,-999,99.0,3,1,2,0.0,0.0,0.0,0.0,0.0,0.0,100
29,2,1722.62,75,2208.5,2210.01,3.01,B,mid,0.78,10,0.68,14,0.76,9,0.66,13,-999,32.0,3,2,1,3.0,-1.0,3.0,-1.0,3.0,-1.0,11
29,Estimation3,2339.29,E1,2339.42,2340.94,2.95,A,left,0.75,11,0.65,15,0.85,-999,0.55,20,3,,1,2,3,,,,,,,110
29,Estimation3,2339.29,E2,2344.34,2345.85,2.51,B,mid,0.75,8,0.65,15,0.85,-999,0.55,20,1,2.0,1,2,3,,,,,,,0
29,Estimation3,2339.29,E3,2348.82,2350.34,5.64,B,mid,0.75,8,0.65,15,0.85,-999,0.55,28,3,,3,2,1,,,,,,,111
29,Estimation3,2339.29,E4,2356.43,2357.95,7.29,C,mid,0.75,10,0.65,15,0.85,-999,0.55,28,1,2.0,3,1,2,,,,,,,101
29,Estimation3,2339.29,E5,2365.75,2367.26,1.5,A,left,0.75,10,0.65,15,0.85,-999,0.55,24,3,,1,2,3,,,,,,,11
29,Estimation3,2339.29,E6,2369.23,2370.75,4.43,B,mid,0.75,9,0.65,15,0.85,-999,0.55,24,1,2.0,3,2,1,,,,,,,0
29,Estimation3,2339.29,E7,2375.63,2377.14,3.81,B,right,0.75,9,0.65,15,0.85,-999,0.55,26,3,,1,3,2,,,,,,,0
29,Estimation3,2339.29,E8,2381.41,2382.92,5.06,B,right,0.75,10,0.65,15,0.85,-999,0.55,26,1,2.0,2,3,1,,,,,,,10
29,Estimation3,2339.29,E9,2388.44,2389.96,5.0,A,mid,0.75,10,0.65,15,0.85,-999,0.55,27,3,,2,1,3,,,,,,,11
29,Estimation3,2339.29,E10,2395.42,2396.94,3.35,B,right,0.75,10,0.65,15,0.85,5,0.55,27,1,2.0,1,3,2,,,,,,,100
29,Estimation3,2339.29,E11,2400.75,2402.27,3.13,A,right,0.75,10,0.65,15,0.85,5,0.55,28,2,1.0,3,2,1,,,,,,,101
29,Estimation3,2339.29,E12,2405.85,2407.37,6.92,B,mid,0.75,10,0.65,15,0.85,7,0.55,28,1,2.0,1,2,3,,,,,,,101
29,Estimation3,2339.29,E13,2414.75,2416.26,3.07,C,left,0.75,10,0.65,15,0.85,7,0.55,28,2,1.0,3,2,1,,,,,,,10
29,Estimation3,2339.29,E14,2419.8,2421.31,2.34,B,right,0.75,10,0.65,15,0.85,6,0.55,28,1,2.0,2,3,1,,,,,,,111
29,Estimation3,2339.29,E15,2424.11,2425.63,2.13,A,right,0.75,10,0.65,15,0.85,6,0.55,28,2,1.0,3,2,1,,,,,,,10
29,Estimation3,2339.29,E16,2428.23,2429.74,1.76,B,right,0.75,10,0.65,15,0.85,7,0.55,28,1,2.0,1,3,2,,,,,,,10
29,Estimation3,2339.29,E17,2431.84,2433.36,1.24,A,left,0.75,10,0.65,15,0.85,7,0.55,28,2,1.0,1,2,3,,,,,,,11
29,3,2437.09,1,2437.16,2438.67,2.73,A,left,0.75,10,0.65,15,0.73,9,0.63,14,-999,31.0,1,2,3,0.0,0.0,0.0,0.0,0.0,0.0,11
29,3,2437.09,2,2441.74,2443.26,3.67,B,right,0.78,9,0.68,15,0.76,8,0.66,14,-999,31.0,1,3,2,3.0,-1.0,3.0,0.0,0.0,0.0,10
29,3,2437.09,3,2447.39,2448.9,4.4,C,mid,0.19,52,0.56,17,0.8,12,-999.0,-999,-999,99.0,3,1,2,0.0,0.0,0.0,0.0,0.0,0.0,1
29,3,2437.09,4,2453.77,2455.29,5.94,B,right,0.72,9,0.62,15,0.7,8,0.6,14,-999,32.0,2,3,1,-3.0,-1.0,-3.0,0.0,-3.0,-1.0,101
29,3,2437.09,5,2461.68,2463.2,2.77,B,mid,0.78,9,0.62,15,0.76,8,0.6,14,-999,32.0,3,2,1,3.0,-1.0,-3.0,0.0,-3.0,-1.0,110
29,3,2437.09,6,2466.43,2467.95,6.18,A,right,0.75,10,0.65,14,0.73,9,0.63,13,-999,31.0,3,2,1,0.0,0.0,0.0,-1.0,0.0,0.0,111
29,3,2437.09,7,2474.48,2476.0,5.27,A,left,0.78,10,0.65,14,0.82,6,0.52,27,-999,1.0,1,2,3,3.0,0.0,0.0,-1.0,-3.0,-1.0,1
29,3,2437.09,8,2481.73,2483.24,3.56,A,left,0.75,9,0.68,14,0.73,8,0.66,13,-999,31.0,1,2,3,0.0,-1.0,3.0,-1.0,0.0,-1.0,0
29,3,2437.09,9,2487.14,2488.66,4.93,B,right,0.75,9,0.62,15,0.88,6,0.58,27,-999,2.0,2,3,1,0.0,-1.0,-3.0,0.0,3.0,-1.0,111
29,3,2437.09,10,2493.92,2495.44,5.08,A,left,0.72,10,0.65,15,0.7,9,0.63,14,-999,31.0,1,3,2,-3.0,0.0,0.0,0.0,-3.0,-1.0,11
29,3,2437.09,11,2500.99,2502.5,6.35,A,mid,0.72,10,0.65,14,0.7,9,0.63,13,-999,32.0,2,1,3,-3.0,0.0,0.0,-1.0,3.0,0.0,11
29,3,2437.09,12,2509.32,2510.83,4.21,C,right,0.72,9,0.62,14,0.88,7,0.58,28,-999,2.0,1,2,3,-3.0,-1.0,-3.0,-1.0,3.0,0.0,110
29,3,2437.09,13,2515.5,2517.02,7.18,A,right,0.72,10,0.68,14,0.7,9,0.66,13,-999,32.0,3,1,2,-3.0,0.0,3.0,-1.0,0.0,-1.0,10
29,3,2437.09,14,2524.53,2526.05,3.68,A,mid,0.72,10,0.68,15,0.82,6,0.52,27,-999,1.0,2,1,3,-3.0,0.0,3.0,0.0,-3.0,-1.0,100
29,3,2437.09,15,2530.19,2531.71,2.16,B,mid,0.78,10,0.65,15,0.76,9,0.63,14,-999,32.0,1,2,3,3.0,0.0,0.0,0.0,0.0,0.0,11
29,3,2437.09,16,2534.21,2535.73,3.66,B,right,0.75,9,0.68,14,0.73,8,0.66,13,-999,32.0,1,3,2,0.0,-1.0,3.0,-1.0,0.0,0.0,111
29,3,2437.09,17,2539.84,2541.36,2.0,B,right,0.72,9,0.68,14,0.7,8,0.66,13,-999,31.0,2,3,1,-3.0,-1.0,3.0,-1.0,-3.0,0.0,11
29,3,2437.09,18,2543.82,2545.34,2.97,C,left,0.24,41,0.37,27,0.76,13,-999.0,-999,-999,99.0,2,3,1,0.0,0.0,0.0,0.0,0.0,0.0,10
29,3,2437.09,19,2548.64,2550.16,6.84,B,mid,0.75,9,0.65,15,0.73,8,0.63,14,-999,31.0,3,2,1,0.0,-1.0,0.0,0.0,3.0,-1.0,101
29,3,2437.09,20,2557.45,2558.97,4.08,B,mid,0.75,9,0.65,14,0.73,8,0.63,13,-999,32.0,3,2,1,0.0,-1.0,0.0,-1.0,3.0,0.0,111
29,3,2437.09,21,2563.38,2564.9,2.14,A,right,0.75,10,0.62,14,0.88,7,0.58,28,-999,2.0,3,1,2,0.0,0.0,-3.0,-1.0,3.0,0.0,10
29,3,2437.09,22,2567.5,2569.02,4.23,A,mid,0.78,10,0.68,15,0.76,9,0.66,14,-999,31.0,2,1,3,3.0,0.0,3.0,0.0,0.0,0.0,110
29,3,2437.09,23,2573.71,2575.23,5.56,A,left,0.78,10,0.62,14,0.76,9,0.6,13,-999,31.0,1,3,2,3.0,0.0,-3.0,-1.0,-3.0,0.0,0
29,3,2437.09,24,2581.25,2582.76,3.62,A,mid,0.72,9,0.65,15,0.85,7,0.55,28,-999,2.0,2,3,1,-3.0,-1.0,0.0,0.0,0.0,0.0,11
29,3,2437.09,25,2586.84,2588.36,4.12,B,mid,0.78,9,0.62,14,0.76,8,0.6,13,-999,32.0,1,2,3,3.0,-1.0,-3.0,-1.0,0.0,-1.0,11
29,3,2437.09,26,2592.94,2594.46,3.49,A,right,0.72,10,0.62,15,0.7,9,0.6,14,-999,32.0,3,1,2,-3.0,0.0,-3.0,0.0,0.0,0.0,110
29,3,2437.09,27,2598.41,2599.92,5.57,A,right,0.75,10,0.65,14,0.73,9,0.63,13,-999,31.0,3,1,2,0.0,0.0,0.0,-1.0,-3.0,-1.0,10
29,3,2437.09,28,2605.95,2607.47,5.61,B,right,0.75,9,0.68,14,0.85,6,0.55,27,-999,2.0,1,3,2,0.0,-1.0,3.0,-1.0,0.0,-1.0,1
29,3,2437.09,29,2613.42,2614.93,4.68,A,mid,0.78,10,0.65,14,0.82,6,0.52,27,-999,2.0,2,1,3,3.0,0.0,0.0,-1.0,-3.0,-1.0,11
29,3,2437.09,30,2619.95,2621.47,3.25,A,left,0.75,10,0.65,14,0.85,6,0.55,27,-999,2.0,1,3,2,0.0,0.0,0.0,-1.0,0.0,-1.0,110
29,3,2437.09,31,2625.05,2626.56,3.99,B,left,0.78,9,0.68,14,0.76,8,0.66,13,-999,32.0,2,1,3,3.0,-1.0,3.0,-1.0,3.0,-1.0,100
29,3,2437.09,32,2631.01,2632.53,5.25,B,right,0.72,9,0.68,14,0.85,7,0.55,28,-999,2.0,2,3,1,-3.0,-1.0,3.0,-1.0,0.0,0.0,10
29,3,2437.09,33,2638.24,2639.76,3.35,B,mid,0.72,9,0.65,14,0.7,8,0.63,13,-999,31.0,3,2,1,-3.0,-1.0,0.0,-1.0,3.0,-1.0,1
29,3,2437.09,34,2643.44,2644.96,3.66,B,left,0.72,10,0.68,15,0.82,7,0.52,28,-999,2.0,2,1,3,-3.0,0.0,3.0,0.0,-3.0,0.0,10
29,3,2437.09,35,2649.07,2650.59,2.39,A,right,0.78,10,0.62,14,0.85,7,0.55,28,-999,2.0,3,1,2,3.0,0.0,-3.0,-1.0,0.0,0.0,100
29,3,2437.09,36,2653.44,2654.96,3.26,B,mid,0.72,9,0.68,15,0.88,7,0.58,28,-999,2.0,1,2,3,-3.0,-1.0,3.0,0.0,3.0,0.0,100
29,3,2437.09,37,2658.55,2660.07,6.97,A,mid,0.72,10,0.62,15,0.7,9,0.6,14,-999,31.0,2,3,1,-3.0,0.0,-3.0,0.0,0.0,-1.0,0
29,3,2437.09,38,2702.62,2704.14,8.4,A,right,0.72,9,0.65,15,0.7,8,0.63,14,-999,31.0,3,2,1,-3.0,-1.0,0.0,0.0,3.0,-1.0,11
29,3,2437.09,39,2712.99,2714.5,2.71,C,mid,0.31,32,0.38,26,0.85,11,-999.0,-999,-999,99.0,1,3,2,0.0,0.0,0.0,0.0,0.0,0.0,0
29,3,2437.09,40,2717.55,2719.07,4.92,B,left,0.75,9,0.62,15,0.73,8,0.6,14,-999,32.0,3,1,2,0.0,-1.0,-3.0,0.0,-3.0,0.0,110
29,3,2437.09,41,2724.45,2725.97,7.42,A,left,0.75,10,0.65,15,0.82,6,0.52,27,-999,1.0,1,3,2,0.0,0.0,0.0,0.0,-3.0,-1.0,100
29,3,2437.09,42,2733.85,2735.36,6.29,B,right,0.72,10,0.68,14,0.88,7,0.58,28,-999,2.0,1,3,2,-3.0,0.0,3.0,-1.0,3.0,0.0,111
29,3,2437.09,43,2742.11,2743.63,2.85,C,left,0.78,9,0.68,15,0.88,7,0.58,28,-999,1.0,2,3,1,3.0,-1.0,3.0,0.0,3.0,0.0,111
29,3,2437.09,44,2746.94,2748.46,5.44,A,right,0.78,9,0.65,15,0.76,8,0.63,14,-999,32.0,3,2,1,3.0,-1.0,0.0,0.0,-3.0,-1.0,101
29,3,2437.09,45,2754.36,2755.87,2.22,A,right,0.75,10,0.65,15,0.73,9,0.63,14,-999,31.0,3,2,1,0.0,0.0,0.0,0.0,0.0,-1.0,1
29,3,2437.09,46,2758.62,2760.14,4.41,A,right,0.78,9,0.68,15,0.85,6,0.55,27,-999,1.0,3,1,2,3.0,-1.0,3.0,0.0,0.0,-1.0,100
29,3,2437.09,47,2765.0,2766.52,1.64,C,right,0.78,9,0.62,15,0.85,6,0.55,27,-999,1.0,2,1,3,3.0,-1.0,-3.0,0.0,0.0,-1.0,0
29,3,2437.09,48,2768.62,2770.14,3.06,A,mid,0.78,10,0.65,15,0.76,9,0.63,14,-999,32.0,2,3,1,3.0,0.0,0.0,0.0,-3.0,-1.0,111
29,3,2437.09,49,2773.65,2775.17,3.47,A,right,0.75,9,0.68,15,0.88,7,0.58,28,-999,1.0,3,2,1,0.0,-1.0,3.0,0.0,3.0,0.0,111
29,3,2437.09,50,2779.1,2780.62,4.3,C,right,0.32,31,0.6,16,0.78,12,-999.0,-999,-999,99.0,2,1,3,0.0,0.0,0.0,0.0,0.0,0.0,101
29,3,2437.09,51,2785.25,2786.76,6.63,B,right,0.78,10,0.68,15,0.82,7,0.52,28,-999,1.0,2,3,1,3.0,0.0,3.0,0.0,-3.0,0.0,101
29,3,2437.09,52,2793.84,2795.36,8.01,B,mid,0.72,10,0.62,14,0.85,7,0.55,28,-999,2.0,1,2,3,-3.0,0.0,-3.0,-1.0,0.0,0.0,111
29,3,2437.09,53,2803.82,2805.34,6.45,A,right,0.75,10,0.62,15,0.88,6,0.58,27,-999,1.0,3,1,2,0.0,0.0,-3.0,0.0,3.0,-1.0,100
29,3,2437.09,54,2812.26,2813.77,2.06,B,right,0.72,10,0.68,15,0.82,6,0.52,27,-999,1.0,1,3,2,-3.0,0.0,3.0,0.0,-3.0,-1.0,101
29,3,2437.09,55,2816.29,2817.8,2.77,B,right,0.72,10,0.62,14,0.7,9,0.6,13,-999,32.0,1,3,2,-3.0,0.0,-3.0,-1.0,0.0,0.0,100
29,3,2437.09,56,2821.04,2822.55,4.73,C,left,0.19,52,0.59,16,0.81,12,-999.0,-999,-999,99.0,2,3,1,0.0,0.0,0.0,0.0,0.0,0.0,101
29,3,2437.09,57,2827.62,2829.13,7.46,C,mid,0.78,10,0.65,14,0.82,7,0.52,28,-999,1.0,1,3,2,3.0,0.0,0.0,-1.0,-3.0,0.0,111
29,3,2437.09,58,2837.05,2838.56,3.26,A,mid,0.78,10,0.62,14,0.85,6,0.55,27,-999,1.0,2,3,1,3.0,0.0,-3.0,-1.0,0.0,-1.0,10
29,3,2437.09,59,2842.28,2843.8,3.41,C,left,0.32,31,0.48,20,0.85,11,-999.0,-999,-999,99.0,3,2,1,0.0,0.0,0.0,0.0,0.0,0.0,0
29,3,2437.09,60,2847.54,2849.06,8.25,C,left,0.72,10,0.62,14,0.85,7,0.55,28,-999,2.0,2,3,1,-3.0,0.0,-3.0,-1.0,0.0,0.0,111
29,3,2437.09,61,2857.77,2859.29,6.05,C,left,0.16,62,0.46,21,0.87,11,-999.0,-999,-999,99.0,2,3,1,0.0,0.0,0.0,0.0,0.0,0.0,10
29,3,2437.09,62,2865.69,2867.2,2.72,C,mid,0.78,9,0.62,15,0.76,8,0.6,14,-999,31.0,1,3,2,3.0,-1.0,-3.0,0.0,0.0,0.0,11
29,3,2437.09,63,2870.39,2871.9,4.36,C,mid,0.27,37,0.47,21,0.86,11,-999.0,-999,-999,99.0,1,3,2,0.0,0.0,0.0,0.0,0.0,0.0,0
29,3,2437.09,64,2876.72,2878.24,4.92,A,mid,0.78,10,0.68,15,0.88,6,0.58,27,-999,1.0,2,1,3,3.0,0.0,3.0,0.0,3.0,-1.0,110
29,3,2437.09,65,2883.62,2885.13,4.32,C,right,0.27,37,0.61,16,0.89,11,-999.0,-999,-999,99.0,2,1,3,0.0,0.0,0.0,0.0,0.0,0.0,111
29,3,2437.09,66,2889.91,2891.43,4.75,B,left,0.72,9,0.65,15,0.7,8,0.63,14,-999,31.0,2,1,3,-3.0,-1.0,0.0,0.0,3.0,-1.0,111
29,3,2437.09,67,2896.65,2898.16,3.03,C,mid,0.72,10,0.65,15,0.82,6,0.52,27,-999,2.0,3,1,2,-3.0,0.0,0.0,0.0,-3.0,-1.0,0
29,3,2437.09,68,2901.53,2903.04,8.41,A,mid,0.75,10,0.65,15,0.85,7,0.55,28,-999,1.0,2,3,1,0.0,0.0,0.0,0.0,0.0,0.0,10
29,3,2437.09,69,2911.79,2913.31,4.33,B,mid,0.72,9,0.65,15,0.88,6,0.58,27,-999,2.0,3,2,1,-3.0,-1.0,0.0,0.0,3.0,-1.0,11
29,3,2437.09,70,2917.97,2919.49,8.4,A,left,0.78,10,0.62,15,0.76,9,0.6,14,-999,32.0,1,2,3,3.0,0.0,-3.0,0.0,3.0,0.0,1
29,3,2437.09,71,2928.35,2929.87,3.93,A,mid,0.75,9,0.62,15,0.88,7,0.58,28,-999,1.0,2,1,3,0.0,-1.0,-3.0,0.0,3.0,0.0,0
29,3,2437.09,72,2934.13,2935.65,2.73,B,mid,0.72,10,0.62,15,0.7,9,0.6,14,-999,32.0,3,2,1,-3.0,0.0,-3.0,0.0,3.0,-1.0,11
29,3,2437.09,73,2938.72,2940.23,2.77,A,mid,0.72,10,0.65,15,0.82,6,0.52,27,-999,1.0,2,1,3,-3.0,0.0,0.0,0.0,-3.0,-1.0,1
29,3,2437.09,74,2943.46,2944.98,4.88,C,right,0.28,35,0.67,14,0.78,12,-999.0,-999,-999,99.0,2,1,3,0.0,0.0,0.0,0.0,0.0,0.0,10
29,3,2437.09,75,2950.31,2951.83,5.4,C,right,0.29,34,0.42,23,0.72,13,-999.0,-999,-999,99.0,1,2,3,0.0,0.0,0.0,0.0,0.0,0.0,10
