subject,block,block_onset,trial,fixation_cross_onset,trial_onset,rt,choice,key,pA,mA,pB,mB,pCA,mCA,pCB,mCB,missing,condition,position_A,position_B,position_C,noise_Ap,noise_Am,noise_Bp,noise_Bm,noise_Cp,noise_Cm,attribute_positions
20,Practice,948.09,P1,948.16,949.68,10.92,C,mid,0.78,7,0.62,17,0.85,3,0.55,24,-999,2.0,3,1,2,3.0,-2.0,-3.0,2.0,0.0,-1.0,1
20,Practice,948.09,P2,960.94,962.46,26.63,B,mid,0.72,7,0.62,16,0.88,5,0.58,26,-999,2.0,1,2,3,-3.0,-2.0,-3.0,1.0,3.0,1.0,10
20,Practice,948.09,P3,989.43,990.95,8.9,A,mid,0.75,11,0.68,13,0.85,4,0.55,25,-999,1.0,2,3,1,0.0,2.0,3.0,-2.0,0.0,0.0,110
20,Practice,948.09,P4,1000.21,1001.73,10.34,A,right,0.75,9,0.65,15,0.88,5,0.58,26,-999,1.0,3,1,2,0.0,0.0,0.0,0.0,3.0,1.0,100
20,Practice,948.09,P5,1012.41,1013.93,11.91,A,left,0.72,11,0.62,13,0.85,6,0.55,27,-999,1.0,1,3,2,-3.0,2.0,-3.0,-2.0,0.0,2.0,101
20,Practice,948.09,P6,1026.17,1027.69,8.85,B,right,0.78,7,0.62,13,0.82,6,0.52,27,-999,2.0,2,3,1,3.0,-2.0,-3.0,-2.0,-3.0,2.0,110
20,Practice,948.09,P7,1036.89,1038.4,6.19,B,left,0.75,7,0.65,17,0.85,5,0.55,26,-999,2.0,2,1,3,0.0,-2.0,0.0,2.0,0.0,1.0,111
20,Practice,948.09,P8,1044.93,1046.45,4.69,B,left,0.72,8,0.68,15,0.82,6,0.52,27,-999,2.0,3,1,2,-3.0,-1.0,3.0,0.0,-3.0,2.0,110
20,Practice,948.09,P9,1051.48,1053.0,3.92,A,right,0.78,8,0.62,16,0.88,5,0.58,26,-999,1.0,3,1,2,3.0,-1.0,-3.0,1.0,3.0,1.0,1
20,Practice,948.09,P10,1057.26,1058.78,9.16,A,left,0.75,10,0.65,16,0.82,2,0.52,23,-999,2.0,1,2,3,0.0,1.0,0.0,1.0,-3.0,-2.0,101
20,Practice,948.09,P11,1068.28,1069.79,3.98,B,right,0.72,8,0.65,15,0.85,5,0.55,26,-999,2.0,2,3,1,-3.0,-1.0,0.0,0.0,0.0,1.0,0
20,Practice,948.09,P12,1074.12,1075.64,9.75,B,right,0.72,8,0.68,15,0.85,5,0.55,26,-999,1.0,2,3,1,-3.0,-1.0,3.0,0.0,0.0,1.0,101
20,Practice,948.09,P13,1085.74,1087.25,9.83,A,mid,0.78,11,0.68,16,0.88,5,0.58,26,-999,1.0,2,1,3,3.0,2.0,3.0,1.0,3.0,1.0,111
20,Practice,948.09,P14,1097.42,1098.93,11.99,A,right,0.72,11,0.62,17,0.82,3,0.52,24,-999,2.0,3,2,1,-3.0,2.0,-3.0,2.0,-3.0,-1.0,0
20,Practice,948.09,P15,1111.26,1112.78,23.38,B,right,0.78,7,0.68,14,0.88,5,0.58,26,-999,2.0,2,3,1,3.0,-2.0,3.0,-1.0,3.0,1.0,10
20,Practice,948.09,P16,1136.5,1138.02,7.17,B,left,0.78,7,0.65,13,0.82,2,0.52,23,-999,2.0,2,1,3,3.0,-2.0,0.0,-2.0,-3.0,-2.0,1
20,Practice,948.09,P17,1145.53,1147.05,10.64,A,right,0.72,10,0.65,13,0.82,5,0.52,26,-999,2.0,3,2,1,-3.0,1.0,0.0,-2.0,-3.0,1.0,110
20,Practice,948.09,P18,1158.03,1159.55,11.59,B,left,0.78,7,0.68,13,0.88,2,0.58,23,-999,2.0,3,1,2,3.0,-2.0,3.0,-2.0,3.0,-2.0,10
20,Practice,948.09,P19,1171.48,1172.99,4.31,B,left,0.78,11,0.62,15,0.85,4,0.55,25,-999,1.0,3,1,2,3.0,2.0,-3.0,0.0,0.0,0.0,110
20,Practice,948.09,P20,1177.64,1179.16,4.18,B,right,0.72,7,0.65,14,0.88,4,0.58,25,-999,1.0,1,3,2,-3.0,-2.0,0.0,-1.0,3.0,0.0,11
20,Practice,948.09,P21,1183.67,1185.19,9.18,B,left,0.78,9,0.65,16,0.85,2,0.55,23,-999,1.0,3,1,2,3.0,0.0,0.0,1.0,0.0,-2.0,0
20,Practice,948.09,P22,1194.7,1196.22,7.96,B,right,0.72,9,0.62,15,0.85,2,0.55,23,-999,1.0,1,3,2,-3.0,0.0,-3.0,0.0,0.0,-2.0,10
20,Practice,948.09,P23,1204.51,1206.03,5.37,B,left,0.72,7,0.65,13,0.88,3,0.58,24,-999,1.0,3,1,2,-3.0,-2.0,0.0,-2.0,3.0,-1.0,100
20,Practice,948.09,P24,1211.73,1213.24,8.59,C,right,0.78,7,0.65,13,0.82,5,0.52,26,-999,2.0,2,1,3,3.0,-2.0,0.0,-2.0,-3.0,1.0,10
20,Practice,948.09,P25,1222.17,1223.69,9.02,A,mid,0.78,10,0.68,13,0.85,4,0.55,25,-999,1.0,2,3,1,3.0,1.0,3.0,-2.0,0.0,0.0,111
20,Estimation1,1365.75,E1,1365.85,1367.36,6.75,A,mid,0.75,11,0.65,15,0.85,-999,0.55,20,3,,2,1,3,,,,,,,11
20,Estimation1,1365.75,E2,1374.44,1375.96,4.68,B,right,0.75,8,0.65,15,0.85,-999,0.55,20,1,2.0,1,3,2,,,,,,,101
20,Estimation1,1365.75,E3,1380.99,1382.51,6.66,B,left,0.75,8,0.65,15,0.85,-999,0.55,28,3,,3,1,2,,,,,,,100
20,Estimation1,1365.75,E4,1389.5,1391.02,6.61,C,left,0.75,10,0.65,15,0.85,-999,0.55,28,1,2.0,2,3,1,,,,,,,101
20,Estimation1,1365.75,E5,1397.97,1399.48,9.2,B,mid,0.75,10,0.65,15,0.85,-999,0.55,24,3,,1,2,3,,,,,,,1
20,Estimation1,1365.75,E6,1409.01,1410.53,4.48,C,right,0.75,11,0.65,15,0.85,-999,0.55,24,1,2.0,2,1,3,,,,,,,101
20,Estimation1,1365.75,E7,1415.35,1416.86,5.31,B,mid,0.75,11,0.65,15,0.85,-999,0.55,22,3,,1,2,3,,,,,,,100
20,Estimation1,1365.75,E8,1422.51,1424.03,13.42,C,left,0.75,11,0.65,15,0.85,6,0.55,22,1,2.0,2,3,1,,,,,,,100
20,Estimation1,1365.75,E9,1437.79,1439.3,4.37,C,left,0.75,11,0.65,15,0.85,6,0.55,21,2,1.0,3,2,1,,,,,,,100
20,Estimation1,1365.75,E10,1444.02,1445.54,3.63,C,mid,0.75,11,0.65,15,0.85,4,0.55,21,1,2.0,1,3,2,,,,,,,0
20,Estimation1,1365.75,E11,1449.5,1451.02,2.91,A,left,0.75,11,0.65,15,0.85,4,0.55,21,2,1.0,1,2,3,,,,,,,101
20,Estimation1,1365.75,E12,1454.27,1455.78,3.98,B,left,0.75,11,0.65,15,0.85,5,0.55,21,1,2.0,2,1,3,,,,,,,110
20,Estimation1,1365.75,E13,1460.1,1461.61,5.08,A,mid,0.75,11,0.65,15,0.85,5,0.55,21,2,1.0,2,1,3,,,,,,,11
20,Estimation1,1365.75,E14,1467.03,1468.55,2.45,B,mid,0.75,11,0.65,15,0.85,6,0.55,21,1,2.0,1,2,3,,,,,,,100
20,Estimation1,1365.75,E15,1471.33,1472.84,5.63,A,mid,0.75,11,0.65,15,0.85,6,0.55,21,2,1.0,2,1,3,,,,,,,110
20,1,1483.22,1,1483.29,1484.81,7.23,A,mid,0.78,11,0.62,15,0.76,10,0.6,14,-999,32.0,2,1,3,3.0,0.0,-3.0,0.0,3.0,0.0,111
20,1,1483.22,2,1492.39,1493.9,5.59,A,left,0.78,11,0.65,14,0.82,5,0.52,20,-999,1.0,1,3,2,3.0,0.0,0.0,-1.0,-3.0,-1.0,110
20,1,1483.22,3,1499.84,1501.35,8.1,B,right,0.78,11,0.68,15,0.76,10,0.66,14,-999,31.0,1,3,2,3.0,0.0,3.0,0.0,0.0,0.0,111
20,1,1483.22,4,1509.78,1511.3,5.87,A,right,0.72,10,0.65,15,0.88,5,0.58,20,-999,2.0,3,2,1,-3.0,-1.0,0.0,0.0,3.0,-1.0,111
20,1,1483.22,5,1517.51,1519.03,8.4,A,left,0.78,11,0.65,15,0.76,10,0.63,14,-999,32.0,1,3,2,3.0,0.0,0.0,0.0,0.0,0.0,101
20,1,1483.22,6,1527.78,1529.29,5.48,A,left,0.78,10,0.62,15,0.76,9,0.6,14,-999,32.0,1,2,3,3.0,-1.0,-3.0,0.0,-3.0,-1.0,101
20,1,1483.22,7,1535.11,1536.62,7.51,A,right,0.72,10,0.62,15,0.7,9,0.6,14,-999,32.0,3,2,1,-3.0,-1.0,-3.0,0.0,-3.0,-1.0,1
20,1,1483.22,8,1544.47,1545.99,5.31,A,left,0.78,10,0.68,15,0.85,5,0.55,20,-999,1.0,1,3,2,3.0,-1.0,3.0,0.0,0.0,-1.0,100
20,1,1483.22,9,1551.64,1553.15,6.11,C,left,0.31,32,0.38,26,0.85,11,-999.0,-999,-999,99.0,2,3,1,0.0,0.0,0.0,0.0,0.0,0.0,101
20,1,1483.22,10,1559.6,1561.12,3.77,A,right,0.75,10,0.68,14,0.85,5,0.55,20,-999,2.0,3,2,1,0.0,-1.0,3.0,-1.0,0.0,-1.0,111
20,1,1483.22,11,1565.23,1566.75,6.48,C,mid,0.72,10,0.62,14,0.88,6,0.58,21,-999,2.0,1,3,2,-3.0,-1.0,-3.0,-1.0,3.0,0.0,101
20,1,1483.22,12,1573.58,1575.09,7.52,B,left,0.72,10,0.68,14,0.85,6,0.55,21,-999,2.0,3,1,2,-3.0,-1.0,3.0,-1.0,0.0,0.0,0
20,1,1483.22,13,1582.96,1584.47,4.64,C,mid,0.32,31,0.48,20,0.85,11,-999.0,-999,-999,99.0,3,1,2,0.0,0.0,0.0,0.0,0.0,0.0,0
20,1,1483.22,14,1589.46,1590.97,6.07,A,right,0.75,10,0.65,14,0.73,9,0.63,13,-999,32.0,3,1,2,0.0,-1.0,0.0,-1.0,3.0,0.0,111
20,1,1483.22,15,1597.39,1598.9,5.57,B,left,0.75,10,0.68,14,0.73,9,0.66,13,-999,32.0,3,1,2,0.0,-1.0,3.0,-1.0,0.0,0.0,10
20,1,1483.22,16,1604.82,1606.33,3.59,A,right,0.78,10,0.62,15,0.76,9,0.6,14,-999,31.0,3,2,1,3.0,-1.0,-3.0,0.0,0.0,0.0,110
20,1,1483.22,17,1610.27,1611.78,11.29,A,mid,0.75,11,0.65,15,0.85,6,0.55,21,-999,1.0,2,1,3,0.0,0.0,0.0,0.0,0.0,0.0,0
20,1,1483.22,18,1623.41,1624.93,8.82,B,left,0.72,11,0.68,15,0.82,5,0.52,20,-999,1.0,2,1,3,-3.0,0.0,3.0,0.0,-3.0,-1.0,11
20,1,1483.22,19,1634.09,1635.61,3.91,A,mid,0.72,11,0.65,14,0.7,10,0.63,13,-999,32.0,2,1,3,-3.0,0.0,0.0,-1.0,3.0,0.0,101
20,1,1483.22,20,1639.86,1641.37,5.68,A,mid,0.72,11,0.68,15,0.82,6,0.52,21,-999,2.0,2,1,3,-3.0,0.0,3.0,0.0,-3.0,0.0,1
20,1,1483.22,21,1647.39,1648.9,4.06,B,right,0.75,11,0.62,15,0.88,5,0.58,20,-999,1.0,2,3,1,0.0,0.0,-3.0,0.0,3.0,-1.0,11
20,1,1483.22,22,1653.3,1654.82,12.23,B,mid,0.72,11,0.65,15,0.7,10,0.63,14,-999,31.0,1,2,3,-3.0,0.0,0.0,0.0,-3.0,-1.0,100
20,1,1483.22,23,1667.38,1668.9,7.4,A,left,0.72,11,0.65,15,0.82,5,0.52,20,-999,2.0,1,3,2,-3.0,0.0,0.0,0.0,-3.0,-1.0,11
20,1,1483.22,24,1676.64,1678.16,9.61,A,left,0.75,11,0.62,14,0.88,6,0.58,21,-999,2.0,1,2,3,0.0,0.0,-3.0,-1.0,3.0,0.0,101
20,1,1483.22,25,1688.11,1689.62,8.25,A,left,0.75,11,0.65,14,0.85,5,0.55,20,-999,2.0,1,2,3,0.0,0.0,0.0,-1.0,0.0,-1.0,111
20,1,1483.22,26,1698.22,1699.74,5.69,A,mid,0.75,11,0.65,15,0.82,5,0.52,20,-999,1.0,2,1,3,0.0,0.0,0.0,0.0,-3.0,-1.0,101
20,1,1483.22,27,1705.79,1707.3,8.3,A,mid,0.78,10,0.62,14,0.76,9,0.6,13,-999,32.0,2,3,1,3.0,-1.0,-3.0,-1.0,0.0,-1.0,100
20,1,1483.22,28,1715.95,1717.46,6.69,B,left,0.72,10,0.65,14,0.7,9,0.63,13,-999,31.0,2,1,3,-3.0,-1.0,0.0,-1.0,3.0,-1.0,0
20,1,1483.22,29,1724.5,1726.01,5.26,B,right,0.72,11,0.68,15,0.82,5,0.52,20,-999,1.0,2,3,1,-3.0,0.0,3.0,0.0,-3.0,-1.0,110
20,1,1483.22,30,1731.61,1733.13,6.8,B,mid,0.75,10,0.68,15,0.88,6,0.58,21,-999,1.0,1,2,3,0.0,-1.0,3.0,0.0,3.0,0.0,10
20,1,1483.22,31,1740.27,1741.79,7.37,A,left,0.72,11,0.62,15,0.7,10,0.6,14,-999,32.0,1,3,2,-3.0,0.0,-3.0,0.0,3.0,-1.0,100
20,1,1483.22,32,1749.49,1751.0,10.64,A,right,0.75,10,0.68,14,0.73,9,0.66,13,-999,31.0,3,1,2,0.0,-1.0,3.0,-1.0,0.0,-1.0,110
20,1,1483.22,33,1761.98,1763.5,5.57,A,mid,0.75,11,0.65,14,0.73,10,0.63,13,-999,31.0,2,3,1,0.0,0.0,0.0,-1.0,0.0,0.0,0
20,1,1483.22,34,1769.41,1770.93,6.23,A,mid,0.78,11,0.65,15,0.76,10,0.63,14,-999,32.0,2,1,3,3.0,0.0,0.0,0.0,-3.0,-1.0,111
20,1,1483.22,35,1777.51,1779.03,7.08,C,right,0.19,52,0.59,16,0.81,12,-999.0,-999,-999,99.0,1,2,3,0.0,0.0,0.0,0.0,0.0,0.0,100
20,1,1483.22,36,1786.44,1787.96,4.4,A,left,0.78,10,0.68,15,0.88,6,0.58,21,-999,1.0,1,2,3,3.0,-1.0,3.0,0.0,3.0,0.0,110
20,1,1483.22,37,1792.71,1794.22,7.88,C,right,0.28,35,0.67,14,0.78,12,-999.0,-999,-999,99.0,1,2,3,0.0,0.0,0.0,0.0,0.0,0.0,11
20,1,1483.22,38,1843.31,1844.82,4.52,A,right,0.78,11,0.65,14,0.82,6,0.52,21,-999,1.0,3,1,2,3.0,0.0,0.0,-1.0,-3.0,0.0,110
20,1,1483.22,39,1849.69,1851.21,6.09,A,mid,0.72,11,0.62,15,0.7,10,0.6,14,-999,32.0,2,1,3,-3.0,0.0,-3.0,0.0,0.0,0.0,110
20,1,1483.22,40,1857.64,1859.15,7.04,A,left,0.75,10,0.62,15,0.88,6,0.58,21,-999,1.0,1,3,2,0.0,-1.0,-3.0,0.0,3.0,0.0,1
20,1,1483.22,41,1866.53,1868.05,3.54,A,left,0.75,10,0.65,15,0.73,9,0.63,14,-999,31.0,1,2,3,0.0,-1.0,0.0,0.0,3.0,-1.0,110
20,1,1483.22,42,1871.93,1873.45,3.48,A,right,0.75,11,0.65,15,0.73,10,0.63,14,-999,31.0,3,1,2,0.0,0.0,0.0,0.0,0.0,0.0,10
20,1,1483.22,43,1877.26,1878.78,9.06,A,right,0.78,11,0.68,15,0.82,6,0.52,21,-999,1.0,3,2,1,3.0,0.0,3.0,0.0,-3.0,0.0,1
20,1,1483.22,44,1888.18,1889.69,7.77,C,right,0.24,41,0.37,27,0.76,13,-999.0,-999,-999,99.0,2,1,3,0.0,0.0,0.0,0.0,0.0,0.0,10
20,1,1483.22,45,1897.81,1899.32,3.74,A,mid,0.72,10,0.65,15,0.85,6,0.55,21,-999,2.0,2,3,1,-3.0,-1.0,0.0,0.0,0.0,0.0,11
20,1,1483.22,46,1903.4,1904.92,7.82,C,right,0.16,62,0.46,21,0.87,11,-999.0,-999,-999,99.0,1,2,3,0.0,0.0,0.0,0.0,0.0,0.0,10
20,1,1483.22,47,1913.08,1914.6,6.9,A,left,0.72,11,0.62,14,0.85,6,0.55,21,-999,2.0,1,2,3,-3.0,0.0,-3.0,-1.0,0.0,0.0,11
20,1,1483.22,48,1921.83,1923.35,5.06,A,right,0.78,11,0.62,14,0.85,6,0.55,21,-999,2.0,3,2,1,3.0,0.0,-3.0,-1.0,0.0,0.0,0
20,1,1483.22,49,1928.75,1930.26,5.36,A,mid,0.75,10,0.62,15,0.73,9,0.6,14,-999,32.0,2,1,3,0.0,-1.0,-3.0,0.0,-3.0,0.0,1
20,1,1483.22,50,1935.96,1937.48,4.18,A,mid,0.75,11,0.65,15,0.73,10,0.63,14,-999,31.0,2,1,3,0.0,0.0,0.0,0.0,0.0,-1.0,10
20,1,1483.22,51,1941.99,1943.51,6.76,A,left,0.78,10,0.68,14,0.76,9,0.66,13,-999,32.0,1,2,3,3.0,-1.0,3.0,-1.0,3.0,-1.0,0
20,1,1483.22,52,1950.62,1952.14,5.39,A,mid,0.78,11,0.62,14,0.76,10,0.6,13,-999,31.0,2,1,3,3.0,0.0,-3.0,-1.0,-3.0,0.0,100
20,1,1483.22,53,1957.87,1959.39,4.14,A,left,0.78,11,0.65,14,0.82,5,0.52,20,-999,2.0,1,2,3,3.0,0.0,0.0,-1.0,-3.0,-1.0,0
20,1,1483.22,54,1963.87,1965.38,4.35,C,left,0.19,52,0.56,17,0.8,12,-999.0,-999,-999,99.0,2,3,1,0.0,0.0,0.0,0.0,0.0,0.0,10
20,1,1483.22,55,1970.07,1971.58,4.03,A,left,0.78,10,0.62,15,0.85,5,0.55,20,-999,1.0,1,2,3,3.0,-1.0,-3.0,0.0,0.0,-1.0,101
20,1,1483.22,56,1975.96,1977.48,4.95,A,left,0.72,10,0.65,15,0.7,9,0.63,14,-999,31.0,1,3,2,-3.0,-1.0,0.0,0.0,3.0,-1.0,111
20,1,1483.22,57,1982.78,1984.29,3.6,A,mid,0.72,10,0.65,15,0.7,9,0.63,14,-999,31.0,2,1,3,-3.0,-1.0,0.0,0.0,3.0,-1.0,100
20,1,1483.22,58,1988.24,1989.76,5.12,A,right,0.72,11,0.68,14,0.88,6,0.58,21,-999,2.0,3,1,2,-3.0,0.0,3.0,-1.0,3.0,0.0,110
20,1,1483.22,59,1995.22,1996.74,4.48,C,left,0.27,37,0.61,16,0.89,11,-999.0,-999,-999,99.0,3,2,1,0.0,0.0,0.0,0.0,0.0,0.0,1
20,1,1483.22,60,2001.56,2003.07,3.35,A,right,0.78,11,0.68,15,0.88,5,0.58,20,-999,1.0,3,1,2,3.0,0.0,3.0,0.0,3.0,-1.0,111
20,1,1483.22,61,2006.77,2008.29,6.81,A,right,0.72,11,0.68,14,0.7,10,0.66,13,-999,32.0,3,2,1,-3.0,0.0,3.0,-1.0,0.0,-1.0,0
20,1,1483.22,62,2015.44,2016.95,3.08,C,right,0.27,37,0.47,21,0.86,11,-999.0,-999,-999,99.0,1,2,3,0.0,0.0,0.0,0.0,0.0,0.0,0
20,1,1483.22,63,2020.37,2021.88,6.6,C,left,0.29,34,0.42,23,0.72,13,-999.0,-999,-999,99.0,2,3,1,0.0,0.0,0.0,0.0,0.0,0.0,110
20,1,1483.22,64,2028.81,2030.33,4.45,A,mid,0.72,10,0.68,14,0.7,9,0.66,13,-999,31.0,2,1,3,-3.0,-1.0,3.0,-1.0,-3.0,0.0,101
20,1,1483.22,65,2035.13,2036.64,5.76,B,left,0.72,10,0.68,15,0.88,6,0.58,21,-999,2.0,2,1,3,-3.0,-1.0,3.0,0.0,3.0,0.0,111
20,1,1483.22,66,2042.74,2044.26,5.54,A,left,0.72,11,0.62,14,0.7,10,0.6,13,-999,32.0,1,3,2,-3.0,0.0,-3.0,-1.0,0.0,0.0,10
20,1,1483.22,67,2050.14,2051.66,4.84,A,left,0.72,11,0.62,15,0.7,10,0.6,14,-999,31.0,1,2,3,-3.0,0.0,-3.0,0.0,0.0,-1.0,111
20,1,1483.22,68,2056.84,2058.35,5.26,A,right,0.75,11,0.65,14,0.73,10,0.63,13,-999,31.0,3,1,2,0.0,0.0,0.0,-1.0,-3.0,-1.0,111
20,1,1483.22,69,2063.95,2065.47,6.05,A,right,0.78,10,0.68,15,0.76,9,0.66,14,-999,31.0,3,2,1,3.0,-1.0,3.0,0.0,0.0,0.0,100
20,1,1483.22,70,2071.87,2073.38,5.56,A,right,0.75,10,0.62,15,0.88,5,0.58,20,-999,2.0,3,1,2,0.0,-1.0,-3.0,0.0,3.0,-1.0,0
20,1,1483.22,71,2079.28,2080.8,4.29,A,left,0.78,11,0.62,14,0.85,5,0.55,20,-999,1.0,1,3,2,3.0,0.0,-3.0,-1.0,0.0,-1.0,110
20,1,1483.22,72,2085.43,2086.94,5.15,B,left,0.72,11,0.65,15,0.82,5,0.52,20,-999,1.0,3,1,2,-3.0,0.0,0.0,0.0,-3.0,-1.0,110
20,1,1483.22,73,2092.43,2093.94,4.02,C,right,0.32,31,0.6,16,0.78,12,-999.0,-999,-999,99.0,2,1,3,0.0,0.0,0.0,0.0,0.0,0.0,110
20,1,1483.22,74,2098.29,2099.81,6.5,A,right,0.78,10,0.65,15,0.76,9,0.63,14,-999,32.0,3,2,1,3.0,-1.0,0.0,0.0,-3.0,-1.0,110
20,1,1483.22,75,2106.64,2108.16,4.2,A,right,0.72,11,0.62,14,0.85,6,0.55,21,-999,2.0,3,2,1,-3.0,0.0,-3.0,-1.0,0.0,0.0,100
20,Estimation2,2220.75,E1,2220.82,2222.33,2.78,A,mid,0.75,11,0.65,15,0.85,-999,0.55,20,3,,2,1,3,,,,,,,110
20,Estimation2,2220.75,E2,2225.43,2226.95,3.44,B,mid,0.75,8,0.65,15,0.85,-999,0.55,20,1,2.0,1,2,3,,,,,,,0
20,Estimation2,2220.75,E3,2230.71,2232.23,3.29,B,left,0.75,8,0.65,15,0.85,-999,0.55,28,3,,3,1,2,,,,,,,1
20,Estimation2,2220.75,E4,2235.86,2237.38,2.29,B,right,0.75,10,0.65,15,0.85,-999,0.55,28,1,2.0,1,3,2,,,,,,,1
20,Estimation2,2220.75,E5,2240.01,2241.53,2.32,A,left,0.75,10,0.65,15,0.85,-999,0.55,32,3,,1,3,2,,,,,,,0
20,Estimation2,2220.75,E6,2244.18,2245.69,4.08,C,right,0.75,9,0.65,15,0.85,-999,0.55,32,1,2.0,1,2,3,,,,,,,0
20,Estimation2,2220.75,E7,2250.11,2251.63,4.22,B,left,0.75,9,0.65,15,0.85,-999,0.55,30,3,,3,1,2,,,,,,,101
20,Estimation2,2220.75,E8,2256.19,2257.71,3.35,C,mid,0.75,10,0.65,15,0.85,-999,0.55,30,1,2.0,3,1,2,,,,,,,10
20,Estimation2,2220.75,E9,2261.41,2262.92,2.19,A,right,0.75,10,0.65,15,0.85,-999,0.55,29,3,,3,2,1,,,,,,,110
20,Estimation2,2220.75,E10,2265.45,2266.97,5.2,C,mid,0.75,10,0.65,15,0.85,5,0.55,29,1,2.0,3,1,2,,,,,,,110
20,Estimation2,2220.75,E11,2272.5,2274.02,2.91,A,left,0.75,10,0.65,15,0.85,5,0.55,29,2,1.0,1,2,3,,,,,,,101
20,Estimation2,2220.75,E12,2277.27,2278.78,5.37,B,left,0.75,10,0.65,15,0.85,7,0.55,29,1,2.0,3,1,2,,,,,,,110
20,Estimation2,2220.75,E13,2284.53,2286.05,2.14,A,left,0.75,10,0.65,15,0.85,7,0.55,29,2,1.0,1,3,2,,,,,,,101
20,Estimation2,2220.75,E14,2288.53,2290.05,6.12,C,mid,0.75,10,0.65,15,0.85,8,0.55,29,1,2.0,3,1,2,,,,,,,1
20,Estimation2,2220.75,E15,2296.51,2298.03,3.81,C,right,0.75,10,0.65,15,0.85,8,0.55,29,2,1.0,2,1,3,,,,,,,110
20,2,2305.57,1,2305.64,2307.16,5.22,A,mid,0.72,10,0.62,14,0.85,8,0.55,29,-999,2.0,2,1,3,-3.0,0.0,-3.0,-1.0,0.0,0.0,100
20,2,2305.57,2,2312.71,2314.22,3.12,A,right,0.78,10,0.62,14,0.85,7,0.55,28,-999,1.0,3,2,1,3.0,0.0,-3.0,-1.0,0.0,-1.0,0
20,2,2305.57,3,2317.69,2319.2,4.29,A,mid,0.75,10,0.65,15,0.82,7,0.52,28,-999,1.0,2,3,1,0.0,0.0,0.0,0.0,-3.0,-1.0,111
20,2,2305.57,4,2323.83,2325.35,3.72,A,right,0.72,10,0.62,15,0.7,9,0.6,14,-999,32.0,3,2,1,-3.0,0.0,-3.0,0.0,0.0,0.0,0
20,2,2305.57,5,2329.42,2330.93,6.35,A,mid,0.75,10,0.65,15,0.73,9,0.63,14,-999,31.0,2,1,3,0.0,0.0,0.0,0.0,0.0,-1.0,1
20,2,2305.57,6,2337.63,2339.15,3.9,A,right,0.78,10,0.68,15,0.82,8,0.52,29,-999,1.0,3,2,1,3.0,0.0,3.0,0.0,-3.0,0.0,10
20,2,2305.57,7,2343.38,2344.9,5.86,B,left,0.72,10,0.68,15,0.82,8,0.52,29,-999,2.0,3,1,2,-3.0,0.0,3.0,0.0,-3.0,0.0,110
20,2,2305.57,8,2351.09,2352.61,3.67,B,left,0.72,9,0.68,15,0.88,8,0.58,29,-999,2.0,3,1,2,-3.0,-1.0,3.0,0.0,3.0,0.0,0
20,2,2305.57,9,2356.62,2358.14,6.69,C,right,0.75,10,0.65,15,0.85,8,0.55,29,-999,1.0,2,1,3,0.0,0.0,0.0,0.0,0.0,0.0,110
20,2,2305.57,10,2365.17,2366.69,7.33,A,right,0.72,10,0.68,14,0.88,8,0.58,29,-999,2.0,3,1,2,-3.0,0.0,3.0,-1.0,3.0,0.0,110
20,2,2305.57,11,2374.35,2375.87,6.32,C,mid,0.75,9,0.68,15,0.88,8,0.58,29,-999,1.0,1,3,2,0.0,-1.0,3.0,0.0,3.0,0.0,0
20,2,2305.57,12,2382.53,2384.05,6.07,B,mid,0.75,9,0.68,14,0.85,7,0.55,28,-999,2.0,3,2,1,0.0,-1.0,3.0,-1.0,0.0,-1.0,1
20,2,2305.57,13,2390.45,2391.96,9.29,A,mid,0.72,10,0.65,15,0.82,7,0.52,28,-999,2.0,2,3,1,-3.0,0.0,0.0,0.0,-3.0,-1.0,11
20,2,2305.57,14,2401.59,2403.11,8.58,B,right,0.75,9,0.65,14,0.73,8,0.63,13,-999,32.0,1,3,2,0.0,-1.0,0.0,-1.0,3.0,0.0,10
20,2,2305.57,15,2412.04,2413.56,6.43,A,right,0.78,9,0.68,14,0.76,8,0.66,13,-999,32.0,3,2,1,3.0,-1.0,3.0,-1.0,3.0,-1.0,10
20,2,2305.57,16,2420.32,2421.84,5.01,A,right,0.72,9,0.65,14,0.7,8,0.63,13,-999,31.0,3,1,2,-3.0,-1.0,0.0,-1.0,3.0,-1.0,11
20,2,2305.57,17,2427.18,2428.7,4.01,A,mid,0.78,10,0.62,14,0.85,8,0.55,29,-999,2.0,2,3,1,3.0,0.0,-3.0,-1.0,0.0,0.0,101
20,2,2305.57,18,2433.05,2434.57,6.68,A,right,0.75,10,0.65,15,0.73,9,0.63,14,-999,31.0,3,2,1,0.0,0.0,0.0,0.0,0.0,0.0,10
20,2,2305.57,19,2441.6,2443.11,6.24,A,right,0.72,10,0.62,15,0.7,9,0.6,14,-999,31.0,3,2,1,-3.0,0.0,-3.0,0.0,0.0,-1.0,111
20,2,2305.57,20,2449.69,2451.21,8.46,B,left,0.72,9,0.68,14,0.85,8,0.55,29,-999,2.0,3,1,2,-3.0,-1.0,3.0,-1.0,0.0,0.0,10
20,2,2305.57,21,2460.01,2461.52,6.82,A,mid,0.72,10,0.65,15,0.7,9,0.63,14,-999,31.0,2,3,1,-3.0,0.0,0.0,0.0,-3.0,-1.0,100
20,2,2305.57,22,2468.69,2470.2,13.18,B,mid,0.72,9,0.65,15,0.85,8,0.55,29,-999,2.0,1,2,3,-3.0,-1.0,0.0,0.0,0.0,0.0,11
20,2,2305.57,23,2483.73,2485.25,5.66,B,right,0.75,9,0.68,14,0.73,8,0.66,13,-999,31.0,2,3,1,0.0,-1.0,3.0,-1.0,0.0,-1.0,1
20,2,2305.57,24,2491.26,2492.78,4.64,B,right,0.72,9,0.68,14,0.7,8,0.66,13,-999,31.0,1,3,2,-3.0,-1.0,3.0,-1.0,-3.0,0.0,0
20,2,2305.57,25,2497.76,2499.28,3.79,A,right,0.78,10,0.65,14,0.82,7,0.52,28,-999,1.0,3,1,2,3.0,0.0,0.0,-1.0,-3.0,-1.0,100
20,2,2305.57,26,2503.41,2504.93,4.77,A,left,0.78,10,0.65,15,0.76,9,0.63,14,-999,32.0,1,2,3,3.0,0.0,0.0,0.0,0.0,0.0,0
20,2,2305.57,27,2510.04,2511.56,5.98,C,right,0.27,37,0.47,21,0.86,11,-999.0,-999,-999,99.0,2,1,3,0.0,0.0,0.0,0.0,0.0,0.0,10
20,2,2305.57,28,2517.87,2519.39,4.12,A,left,0.75,10,0.65,14,0.73,9,0.63,13,-999,31.0,1,3,2,0.0,0.0,0.0,-1.0,0.0,0.0,111
20,2,2305.57,29,2523.85,2525.37,6.12,A,left,0.72,10,0.65,15,0.82,7,0.52,28,-999,1.0,1,2,3,-3.0,0.0,0.0,0.0,-3.0,-1.0,10
20,2,2305.57,30,2531.83,2533.35,9.44,A,right,0.72,9,0.62,14,0.88,8,0.58,29,-999,2.0,3,2,1,-3.0,-1.0,-3.0,-1.0,3.0,0.0,100
20,2,2305.57,31,2543.13,2544.65,5.76,A,left,0.78,10,0.65,14,0.82,7,0.52,28,-999,2.0,1,2,3,3.0,0.0,0.0,-1.0,-3.0,-1.0,101
20,2,2305.57,32,2550.74,2552.26,6.54,C,mid,0.29,34,0.42,23,0.72,13,-999.0,-999,-999,99.0,1,3,2,0.0,0.0,0.0,0.0,0.0,0.0,11
20,2,2305.57,33,2559.14,2560.66,5.99,A,left,0.78,9,0.62,15,0.76,8,0.6,14,-999,32.0,1,3,2,3.0,-1.0,-3.0,0.0,-3.0,-1.0,11
20,2,2305.57,34,2566.99,2568.51,4.46,C,mid,0.16,62,0.46,21,0.87,11,-999.0,-999,-999,99.0,3,1,2,0.0,0.0,0.0,0.0,0.0,0.0,111
20,2,2305.57,35,2573.3,2574.82,9.01,B,right,0.78,9,0.65,15,0.76,8,0.63,14,-999,32.0,1,3,2,3.0,-1.0,0.0,0.0,-3.0,-1.0,111
20,2,2305.57,36,2584.17,2585.68,6.44,A,mid,0.78,10,0.68,15,0.88,7,0.58,28,-999,1.0,2,1,3,3.0,0.0,3.0,0.0,3.0,-1.0,10
20,2,2305.57,37,2592.46,2593.98,8.19,A,left,0.72,10,0.68,14,0.7,9,0.66,13,-999,32.0,1,2,3,-3.0,0.0,3.0,-1.0,0.0,-1.0,0
20,2,2305.57,38,2658.06,2659.58,3.17,A,right,0.78,10,0.62,15,0.76,9,0.6,14,-999,32.0,3,1,2,3.0,0.0,-3.0,0.0,3.0,0.0,0
20,2,2305.57,39,2663.09,2664.61,5.37,A,left,0.72,10,0.65,14,0.7,9,0.63,13,-999,32.0,1,2,3,-3.0,0.0,0.0,-1.0,3.0,0.0,100
20,2,2305.57,40,2670.31,2671.82,4.89,C,right,0.32,31,0.48,20,0.85,11,-999.0,-999,-999,99.0,2,1,3,0.0,0.0,0.0,0.0,0.0,0.0,101
20,2,2305.57,41,2677.05,2678.57,3.5,A,left,0.75,10,0.65,14,0.85,7,0.55,28,-999,2.0,1,2,3,0.0,0.0,0.0,-1.0,0.0,-1.0,100
20,2,2305.57,42,2682.4,2683.92,3.45,C,left,0.24,41,0.37,27,0.76,13,-999.0,-999,-999,99.0,2,3,1,0.0,0.0,0.0,0.0,0.0,0.0,11
20,2,2305.57,43,2687.7,2689.22,2.57,C,left,0.27,37,0.61,16,0.89,11,-999.0,-999,-999,99.0,3,2,1,0.0,0.0,0.0,0.0,0.0,0.0,11
20,2,2305.57,44,2692.12,2693.63,5.99,B,left,0.72,10,0.68,15,0.82,7,0.52,28,-999,1.0,2,1,3,-3.0,0.0,3.0,0.0,-3.0,-1.0,10
20,2,2305.57,45,2699.96,2701.48,5.29,C,mid,0.75,9,0.62,15,0.88,8,0.58,29,-999,1.0,1,3,2,0.0,-1.0,-3.0,0.0,3.0,0.0,10
20,2,2305.57,46,2707.11,2708.63,5.39,C,right,0.19,52,0.56,17,0.8,12,-999.0,-999,-999,99.0,2,1,3,0.0,0.0,0.0,0.0,0.0,0.0,110
20,2,2305.57,47,2714.36,2715.87,5.84,A,left,0.78,9,0.68,15,0.85,7,0.55,28,-999,1.0,1,3,2,3.0,-1.0,3.0,0.0,0.0,-1.0,0
20,2,2305.57,48,2722.06,2723.57,6.15,A,left,0.72,9,0.62,15,0.7,8,0.6,14,-999,32.0,1,2,3,-3.0,-1.0,-3.0,0.0,-3.0,-1.0,110
20,2,2305.57,49,2730.05,2731.57,5.14,B,right,0.72,9,0.65,15,0.88,7,0.58,28,-999,2.0,2,3,1,-3.0,-1.0,0.0,0.0,3.0,-1.0,111
20,2,2305.57,50,2737.05,2738.57,3.45,A,mid,0.75,10,0.65,14,0.73,9,0.63,13,-999,31.0,2,1,3,0.0,0.0,0.0,-1.0,-3.0,-1.0,101
20,2,2305.57,51,2742.35,2743.87,7.84,B,mid,0.72,9,0.65,15,0.7,8,0.63,14,-999,31.0,3,2,1,-3.0,-1.0,0.0,0.0,3.0,-1.0,100
20,2,2305.57,52,2752.05,2753.56,4.14,C,right,0.19,52,0.59,16,0.81,12,-999.0,-999,-999,99.0,1,2,3,0.0,0.0,0.0,0.0,0.0,0.0,111
20,2,2305.57,53,2758.04,2759.56,4.32,C,right,0.31,32,0.38,26,0.85,11,-999.0,-999,-999,99.0,1,2,3,0.0,0.0,0.0,0.0,0.0,0.0,1
20,2,2305.57,54,2764.21,2765.72,9.41,C,left,0.72,10,0.68,15,0.82,7,0.52,28,-999,1.0,3,2,1,-3.0,0.0,3.0,0.0,-3.0,-1.0,0
20,2,2305.57,55,2775.47,2776.99,5.4,A,mid,0.72,10,0.62,15,0.7,9,0.6,14,-999,32.0,2,3,1,-3.0,0.0,-3.0,0.0,3.0,-1.0,10
20,2,2305.57,56,2782.72,2784.24,5.8,A,right,0.78,9,0.68,15,0.76,8,0.66,14,-999,31.0,3,1,2,3.0,-1.0,3.0,0.0,0.0,0.0,111
20,2,2305.57,57,2790.38,2791.9,10.15,A,right,0.75,9,0.62,15,0.88,7,0.58,28,-999,2.0,3,2,1,0.0,-1.0,-3.0,0.0,3.0,-1.0,110
20,2,2305.57,58,2802.4,2803.91,8.25,A,left,0.75,10,0.62,14,0.88,8,0.58,29,-999,2.0,1,2,3,0.0,0.0,-3.0,-1.0,3.0,0.0,100
20,2,2305.57,59,2812.51,2814.03,6.41,A,left,0.78,9,0.62,15,0.85,7,0.55,28,-999,1.0,1,2,3,3.0,-1.0,-3.0,0.0,0.0,-1.0,0
20,2,2305.57,60,2820.77,2822.29,8.53,A,left,0.75,9,0.68,14,0.73,8,0.66,13,-999,32.0,1,2,3,0.0,-1.0,3.0,-1.0,0.0,0.0,10
20,2,2305.57,61,2831.15,2832.67,5.45,A,right,0.75,9,0.62,15,0.73,8,0.6,14,-999,32.0,3,1,2,0.0,-1.0,-3.0,0.0,-3.0,0.0,0
20,2,2305.57,62,2838.47,2839.98,3.8,B,right,0.78,9,0.68,15,0.88,8,0.58,29,-999,1.0,2,3,1,3.0,-1.0,3.0,0.0,3.0,0.0,110
20,2,2305.57,63,2844.13,2845.65,5.75,A,right,0.78,10,0.62,14,0.76,9,0.6,13,-999,31.0,3,2,1,3.0,0.0,-3.0,-1.0,-3.0,0.0,10
20,2,2305.57,64,2851.73,2853.25,5.0,A,right,0.78,10,0.68,15,0.76,9,0.66,14,-999,31.0,3,2,1,3.0,0.0,3.0,0.0,0.0,0.0,110
20,2,2305.57,65,2858.58,2860.09,7.49,A,right,0.72,10,0.62,14,0.85,8,0.55,29,-999,2.0,3,1,2,-3.0,0.0,-3.0,-1.0,0.0,0.0,10
20,2,2305.57,66,2867.93,2869.44,4.67,C,right,0.32,31,0.6,16,0.78,12,-999.0,-999,-999,99.0,2,1,3,0.0,0.0,0.0,0.0,0.0,0.0,1
20,2,2305.57,67,2874.44,2875.96,4.09,A,right,0.78,10,0.65,15,0.76,9,0.63,14,-999,32.0,3,2,1,3.0,0.0,0.0,0.0,-3.0,-1.0,110
20,2,2305.57,68,2880.39,2881.9,5.56,A,left,0.75,10,0.62,15,0.88,7,0.58,28,-999,1.0,1,3,2,0.0,0.0,-3.0,0.0,3.0,-1.0,110
20,2,2305.57,69,2887.8,2889.32,7.14,A,right,0.78,10,0.65,14,0.82,8,0.52,29,-999,1.0,3,2,1,3.0,0.0,0.0,-1.0,-3.0,0.0,110
20,2,2305.57,70,2896.8,2898.32,4.42,C,left,0.28,35,0.67,14,0.78,12,-999.0,-999,-999,99.0,3,2,1,0.0,0.0,0.0,0.0,0.0,0.0,11
20,2,2305.57,71,2903.06,2904.58,3.53,A,left,0.78,9,0.62,14,0.76,8,0.6,13,-999,32.0,1,3,2,3.0,-1.0,-3.0,-1.0,0.0,-1.0,111
20,2,2305.57,72,2908.45,2909.96,8.02,B,left,0.72,9,0.65,15,0.7,8,0.63,14,-999,31.0,3,1,2,-3.0,-1.0,0.0,0.0,3.0,-1.0,100
20,2,2305.57,73,2918.33,2919.84,8.27,A,right,0.78,9,0.62,15,0.76,8,0.6,14,-999,31.0,3,2,1,3.0,-1.0,-3.0,0.0,0.0,0.0,11
20,2,2305.57,74,2928.44,2929.95,9.86,A,left,0.72,10,0.62,14,0.7,9,0.6,13,-999,32.0,1,2,3,-3.0,0.0,-3.0,-1.0,0.0,0.0,110
20,2,2305.57,75,2940.15,2941.67,5.45,C,right,0.75,9,0.65,15,0.73,8,0.63,14,-999,31.0,1,2,3,0.0,-1.0,0.0,0.0,3.0,-1.0,0
20,Estimation3,3088.26,E1,3088.32,3089.84,3.51,A,right,0.75,11,0.65,15,0.85,-999,0.55,20,3,,3,2,1,,,,,,,111
20,Estimation3,3088.26,E2,3093.69,3095.2,4.53,B,left,0.75,8,0.65,15,0.85,-999,0.55,20,1,2.0,3,1,2,,,,,,,101
20,Estimation3,3088.26,E3,3100.07,3101.58,2.73,B,mid,0.75,8,0.65,15,0.85,-999,0.55,28,3,,1,2,3,,,,,,,11
20,Estimation3,3088.26,E4,3104.65,3106.16,3.71,C,left,0.75,10,0.65,15,0.85,-999,0.55,28,1,2.0,3,2,1,,,,,,,0
20,Estimation3,3088.26,E5,3110.21,3111.73,4.25,B,right,0.75,10,0.65,15,0.85,-999,0.55,24,3,,1,3,2,,,,,,,0
20,Estimation3,3088.26,E6,3116.33,3117.84,5.04,B,right,0.75,11,0.65,15,0.85,-999,0.55,24,1,2.0,2,3,1,,,,,,,10
20,Estimation3,3088.26,E7,3123.23,3124.74,2.57,A,mid,0.75,11,0.65,15,0.85,-999,0.55,26,3,,2,1,3,,,,,,,11
20,Estimation3,3088.26,E8,3127.66,3129.17,4.5,C,mid,0.75,11,0.65,15,0.85,6,0.55,26,1,2.0,1,3,2,,,,,,,100
20,Estimation3,3088.26,E9,3134.01,3135.52,4.16,A,right,0.75,11,0.65,15,0.85,6,0.55,25,2,1.0,3,2,1,,,,,,,101
20,Estimation3,3088.26,E10,3140.02,3141.54,10.68,B,mid,0.75,11,0.65,15,0.85,8,0.55,25,1,2.0,1,2,3,,,,,,,101
20,Estimation3,3088.26,E11,3152.55,3154.07,2.29,A,right,0.75,11,0.65,15,0.85,8,0.55,26,2,1.0,3,2,1,,,,,,,10
20,Estimation3,3088.26,E12,3156.7,3158.21,4.87,B,right,0.75,11,0.65,15,0.85,9,0.55,26,1,2.0,2,3,1,,,,,,,111
20,Estimation3,3088.26,E13,3163.41,3164.93,2.84,C,left,0.75,11,0.65,15,0.85,9,0.55,26,2,1.0,3,2,1,,,,,,,10
20,3,3183.53,1,3183.59,3185.11,6.4,A,left,0.78,11,0.65,15,0.76,10,0.63,14,-999,32.0,1,3,2,3.0,0.0,0.0,0.0,-3.0,-1.0,1
20,3,3183.53,2,3191.85,3193.37,5.75,A,right,0.78,10,0.65,15,0.76,9,0.63,14,-999,32.0,3,1,2,3.0,-1.0,0.0,0.0,-3.0,-1.0,10
20,3,3183.53,3,3199.45,3200.97,6.17,A,left,0.78,11,0.62,14,0.85,8,0.55,25,-999,1.0,1,2,3,3.0,0.0,-3.0,-1.0,0.0,-1.0,11
20,3,3183.53,4,3207.48,3209.0,3.18,C,mid,0.32,31,0.6,16,0.78,12,-999.0,-999,-999,99.0,1,3,2,0.0,0.0,0.0,0.0,0.0,0.0,10
20,3,3183.53,5,3212.51,3214.03,8.41,A,right,0.72,11,0.62,15,0.7,10,0.6,14,-999,32.0,3,1,2,-3.0,0.0,-3.0,0.0,3.0,-1.0,1
20,3,3183.53,6,3222.78,3224.29,8.1,A,mid,0.78,11,0.68,15,0.82,9,0.52,26,-999,1.0,2,3,1,3.0,0.0,3.0,0.0,-3.0,0.0,101
20,3,3183.53,7,3232.72,3234.24,8.66,A,right,0.78,10,0.68,15,0.76,9,0.66,14,-999,31.0,3,2,1,3.0,-1.0,3.0,0.0,0.0,0.0,110
20,3,3183.53,8,3243.24,3244.75,5.0,A,right,0.78,11,0.65,14,0.82,9,0.52,26,-999,1.0,3,2,1,3.0,0.0,0.0,-1.0,-3.0,0.0,111
20,3,3183.53,9,3250.09,3251.6,6.81,C,right,0.78,10,0.68,15,0.85,8,0.55,25,-999,1.0,1,2,3,3.0,-1.0,3.0,0.0,0.0,-1.0,1
20,3,3183.53,10,3258.75,3260.27,4.99,A,left,0.78,11,0.62,14,0.76,10,0.6,13,-999,31.0,1,2,3,3.0,0.0,-3.0,-1.0,-3.0,0.0,0
20,3,3183.53,11,3265.6,3267.11,6.48,A,mid,0.72,11,0.62,15,0.7,10,0.6,14,-999,32.0,2,3,1,-3.0,0.0,-3.0,0.0,0.0,0.0,111
20,3,3183.53,12,3273.93,3275.44,3.77,A,left,0.72,10,0.62,15,0.7,9,0.6,14,-999,32.0,1,3,2,-3.0,-1.0,-3.0,0.0,-3.0,-1.0,11
20,3,3183.53,13,3279.56,3281.07,3.96,A,mid,0.75,11,0.65,14,0.73,10,0.63,13,-999,31.0,2,1,3,0.0,0.0,0.0,-1.0,0.0,0.0,11
20,3,3183.53,14,3285.37,3286.89,5.52,A,left,0.78,10,0.62,15,0.76,9,0.6,14,-999,32.0,1,2,3,3.0,-1.0,-3.0,0.0,-3.0,-1.0,110
20,3,3183.53,15,3292.75,3294.27,3.53,A,right,0.78,11,0.68,15,0.88,8,0.58,25,-999,1.0,3,1,2,3.0,0.0,3.0,0.0,3.0,-1.0,10
20,3,3183.53,16,3298.14,3299.65,4.26,A,mid,0.75,11,0.62,14,0.88,9,0.58,26,-999,2.0,2,1,3,0.0,0.0,-3.0,-1.0,3.0,0.0,100
20,3,3183.53,17,3304.25,3305.77,5.77,C,right,0.27,37,0.61,16,0.89,11,-999.0,-999,-999,99.0,1,2,3,0.0,0.0,0.0,0.0,0.0,0.0,11
20,3,3183.53,18,3311.88,3313.4,3.42,A,left,0.78,11,0.65,15,0.76,10,0.63,14,-999,32.0,1,3,2,3.0,0.0,0.0,0.0,0.0,0.0,111
20,3,3183.53,19,3317.16,3318.68,3.07,A,mid,0.78,10,0.62,14,0.76,9,0.6,13,-999,32.0,2,3,1,3.0,-1.0,-3.0,-1.0,0.0,-1.0,11
20,3,3183.53,20,3322.1,3323.61,5.08,A,mid,0.78,10,0.68,14,0.76,9,0.66,13,-999,32.0,2,3,1,3.0,-1.0,3.0,-1.0,3.0,-1.0,10
20,3,3183.53,21,3329.03,3330.54,6.93,C,left,0.27,37,0.47,21,0.86,11,-999.0,-999,-999,99.0,3,2,1,0.0,0.0,0.0,0.0,0.0,0.0,101
20,3,3183.53,22,3337.82,3339.34,7.7,C,left,0.72,10,0.62,14,0.88,9,0.58,26,-999,2.0,3,2,1,-3.0,-1.0,-3.0,-1.0,3.0,0.0,111
20,3,3183.53,23,3347.39,3348.9,4.82,A,right,0.72,11,0.62,14,0.7,10,0.6,13,-999,32.0,3,1,2,-3.0,0.0,-3.0,-1.0,0.0,0.0,10
20,3,3183.53,24,3354.07,3355.58,4.36,A,mid,0.75,11,0.65,15,0.73,10,0.63,14,-999,31.0,2,1,3,0.0,0.0,0.0,0.0,0.0,0.0,110
20,3,3183.53,25,3360.28,3361.8,6.59,A,left,0.72,10,0.65,14,0.7,9,0.63,13,-999,31.0,1,3,2,-3.0,-1.0,0.0,-1.0,3.0,-1.0,0
20,3,3183.53,26,3368.73,3370.25,5.75,C,left,0.19,52,0.59,16,0.81,12,-999.0,-999,-999,99.0,2,3,1,0.0,0.0,0.0,0.0,0.0,0.0,11
20,3,3183.53,27,3376.34,3377.86,4.98,A,left,0.75,10,0.62,15,0.73,9,0.6,14,-999,32.0,1,2,3,0.0,-1.0,-3.0,0.0,-3.0,0.0,11
20,3,3183.53,28,3383.19,3384.71,5.98,A,right,0.72,11,0.65,15,0.82,8,0.52,25,-999,1.0,3,1,2,-3.0,0.0,0.0,0.0,-3.0,-1.0,110
20,3,3183.53,29,3391.02,3392.54,8.59,B,left,0.72,10,0.68,14,0.7,9,0.66,13,-999,31.0,3,1,2,-3.0,-1.0,3.0,-1.0,-3.0,0.0,10
20,3,3183.53,30,3401.47,3402.99,4.7,A,left,0.72,11,0.62,15,0.7,10,0.6,14,-999,31.0,1,3,2,-3.0,0.0,-3.0,0.0,0.0,-1.0,1
20,3,3183.53,31,3408.02,3409.53,7.12,B,left,0.72,10,0.65,15,0.7,9,0.63,14,-999,31.0,2,1,3,-3.0,-1.0,0.0,0.0,3.0,-1.0,11
20,3,3183.53,32,3417.0,3418.51,2.87,A,left,0.78,11,0.65,14,0.82,8,0.52,25,-999,2.0,1,3,2,3.0,0.0,0.0,-1.0,-3.0,-1.0,110
20,3,3183.53,33,3421.71,3423.23,2.83,C,right,0.32,31,0.48,20,0.85,11,-999.0,-999,-999,99.0,2,1,3,0.0,0.0,0.0,0.0,0.0,0.0,100
20,3,3183.53,34,3426.39,3427.91,4.22,A,mid,0.78,11,0.68,15,0.76,10,0.66,14,-999,31.0,2,3,1,3.0,0.0,3.0,0.0,0.0,0.0,10
20,3,3183.53,35,3432.48,3433.99,5.11,A,right,0.75,10,0.65,14,0.73,9,0.63,13,-999,32.0,3,2,1,0.0,-1.0,0.0,-1.0,3.0,0.0,1
20,3,3183.53,36,3439.44,3440.96,2.88,A,mid,0.72,11,0.65,15,0.7,10,0.63,14,-999,31.0,2,1,3,-3.0,0.0,0.0,0.0,-3.0,-1.0,10
20,3,3183.53,37,3444.17,3445.69,4.05,A,right,0.78,10,0.62,15,0.76,9,0.6,14,-999,31.0,3,1,2,3.0,-1.0,-3.0,0.0,0.0,0.0,100
20,3,3183.53,38,3472.31,3473.83,3.2,A,left,0.72,10,0.65,15,0.7,9,0.63,14,-999,31.0,1,2,3,-3.0,-1.0,0.0,0.0,3.0,-1.0,100
20,3,3183.53,39,3477.36,3478.88,6.8,B,right,0.72,11,0.68,14,0.7,10,0.66,13,-999,32.0,2,3,1,-3.0,0.0,3.0,-1.0,0.0,-1.0,0
20,3,3183.53,40,3486.02,3487.54,8.22,B,mid,0.75,10,0.65,15,0.73,9,0.63,14,-999,31.0,3,2,1,0.0,-1.0,0.0,0.0,3.0,-1.0,11
20,3,3183.53,41,3496.11,3497.62,3.69,C,mid,0.24,41,0.37,27,0.76,13,-999.0,-999,-999,99.0,1,3,2,0.0,0.0,0.0,0.0,0.0,0.0,0
20,3,3183.53,42,3501.65,3503.17,8.6,C,mid,0.72,10,0.68,15,0.88,9,0.58,26,-999,2.0,3,1,2,-3.0,-1.0,3.0,0.0,3.0,0.0,110
20,3,3183.53,43,3512.12,3513.63,3.36,A,left,0.75,11,0.65,14,0.73,10,0.63,13,-999,31.0,1,3,2,0.0,0.0,0.0,-1.0,-3.0,-1.0,100
20,3,3183.53,44,3517.33,3518.85,4.44,A,left,0.75,10,0.68,14,0.85,8,0.55,25,-999,2.0,1,3,2,0.0,-1.0,3.0,-1.0,0.0,-1.0,111
20,3,3183.53,45,3523.63,3525.15,4.0,C,left,0.19,52,0.56,17,0.8,12,-999.0,-999,-999,99.0,2,3,1,0.0,0.0,0.0,0.0,0.0,0.0,111
20,3,3183.53,46,3529.48,3530.99,8.22,A,right,0.75,10,0.68,14,0.73,9,0.66,13,-999,32.0,3,2,1,0.0,-1.0,3.0,-1.0,0.0,0.0,101
20,3,3183.53,47,3539.54,3541.06,2.82,A,right,0.75,11,0.65,15,0.82,8,0.52,25,-999,1.0,3,2,1,0.0,0.0,0.0,0.0,-3.0,-1.0,1
20,3,3183.53,48,3544.22,3545.74,5.68,C,mid,0.78,10,0.68,15,0.88,9,0.58,26,-999,1.0,3,1,2,3.0,-1.0,3.0,0.0,3.0,0.0,100
20,3,3183.53,49,3551.75,3553.27,7.58,A,mid,0.75,11,0.65,14,0.85,8,0.55,25,-999,2.0,2,1,3,0.0,0.0,0.0,-1.0,0.0,-1.0,0
20,3,3183.53,50,3561.18,3562.7,4.8,C,left,0.75,11,0.62,15,0.88,8,0.58,25,-999,1.0,2,3,1,0.0,0.0,-3.0,0.0,3.0,-1.0,111
20,3,3183.53,51,3567.85,3569.36,4.39,C,left,0.16,62,0.46,21,0.87,11,-999.0,-999,-999,99.0,3,2,1,0.0,0.0,0.0,0.0,0.0,0.0,111
20,3,3183.53,52,3574.1,3575.61,10.37,A,mid,0.72,11,0.65,15,0.82,8,0.52,25,-999,2.0,2,1,3,-3.0,0.0,0.0,0.0,-3.0,-1.0,101
20,3,3183.53,53,3586.33,3587.84,4.25,A,mid,0.78,11,0.62,14,0.85,9,0.55,26,-999,2.0,2,3,1,3.0,0.0,-3.0,-1.0,0.0,0.0,101
20,3,3183.53,54,3592.44,3593.96,4.77,A,left,0.78,11,0.65,14,0.82,8,0.52,25,-999,1.0,1,2,3,3.0,0.0,0.0,-1.0,-3.0,-1.0,111
20,3,3183.53,55,3599.07,3600.59,13.87,A,right,0.72,10,0.65,15,0.85,9,0.55,26,-999,2.0,3,1,2,-3.0,-1.0,0.0,0.0,0.0,0.0,100
20,3,3183.53,56,3614.8,3616.32,5.06,C,mid,0.75,11,0.65,15,0.85,9,0.55,26,-999,1.0,1,3,2,0.0,0.0,0.0,0.0,0.0,0.0,101
20,3,3183.53,57,3621.71,3623.23,6.73,B,right,0.72,10,0.65,15,0.88,8,0.58,25,-999,2.0,1,3,2,-3.0,-1.0,0.0,0.0,3.0,-1.0,100
20,3,3183.53,58,3630.3,3631.81,4.21,C,left,0.28,35,0.67,14,0.78,12,-999.0,-999,-999,99.0,2,3,1,0.0,0.0,0.0,0.0,0.0,0.0,101
20,3,3183.53,59,3636.36,3637.88,9.03,B,right,0.72,11,0.68,14,0.88,9,0.58,26,-999,2.0,1,3,2,-3.0,0.0,3.0,-1.0,3.0,0.0,111
20,3,3183.53,60,3647.24,3648.76,6.13,A,mid,0.72,11,0.62,14,0.85,9,0.55,26,-999,2.0,2,3,1,-3.0,0.0,-3.0,-1.0,0.0,0.0,10
20,3,3183.53,61,3655.22,3656.74,10.98,B,mid,0.72,10,0.68,14,0.85,9,0.55,26,-999,2.0,3,2,1,-3.0,-1.0,3.0,-1.0,0.0,0.0,0
20,3,3183.53,62,3668.05,3669.57,6.86,A,mid,0.72,11,0.65,14,0.7,10,0.63,13,-999,32.0,2,3,1,-3.0,0.0,0.0,-1.0,3.0,0.0,111
20,3,3183.53,63,3676.76,3678.28,4.74,C,left,0.75,10,0.68,15,0.88,9,0.58,26,-999,1.0,2,3,1,0.0,-1.0,3.0,0.0,3.0,0.0,10
20,3,3183.53,64,3683.36,3684.88,6.61,A,left,0.78,10,0.62,15,0.85,8,0.55,25,-999,1.0,1,3,2,3.0,-1.0,-3.0,0.0,0.0,-1.0,11
20,3,3183.53,65,3691.83,3693.34,4.72,A,left,0.78,11,0.62,15,0.76,10,0.6,14,-999,32.0,1,3,2,3.0,0.0,-3.0,0.0,3.0,0.0,0
20,3,3183.53,66,3698.41,3699.92,3.68,A,mid,0.75,11,0.65,15,0.73,10,0.63,14,-999,31.0,2,1,3,0.0,0.0,0.0,0.0,0.0,-1.0,110
20,3,3183.53,67,3703.94,3705.45,8.87,A,mid,0.72,11,0.68,15,0.82,9,0.52,26,-999,2.0,2,1,3,-3.0,0.0,3.0,0.0,-3.0,0.0,111
20,3,3183.53,68,3714.67,3716.18,9.69,B,left,0.72,11,0.68,15,0.82,8,0.52,25,-999,1.0,2,1,3,-3.0,0.0,3.0,0.0,-3.0,-1.0,111
20,3,3183.53,69,3726.21,3727.73,6.74,A,right,0.75,10,0.68,14,0.73,9,0.66,13,-999,31.0,3,1,2,0.0,-1.0,3.0,-1.0,0.0,-1.0,0
20,3,3183.53,70,3734.81,3736.33,4.45,C,left,0.31,32,0.38,26,0.85,11,-999.0,-999,-999,99.0,2,3,1,0.0,0.0,0.0,0.0,0.0,0.0,10
20,3,3183.53,71,3741.11,3742.63,3.87,C,left,0.75,10,0.62,15,0.88,9,0.58,26,-999,1.0,3,2,1,0.0,-1.0,-3.0,0.0,3.0,0.0,11
20,3,3183.53,72,3746.84,3748.36,12.35,C,right,0.72,11,0.62,14,0.85,9,0.55,26,-999,2.0,1,2,3,-3.0,0.0,-3.0,-1.0,0.0,0.0,1
20,3,3183.53,73,3761.04,3762.55,6.13,C,right,0.29,34,0.42,23,0.72,13,-999.0,-999,-999,99.0,2,1,3,0.0,0.0,0.0,0.0,0.0,0.0,0
20,3,3183.53,74,3769.03,3770.55,8.86,A,right,0.75,10,0.62,15,0.88,8,0.58,25,-999,2.0,3,2,1,0.0,-1.0,-3.0,0.0,3.0,-1.0,11
20,3,3183.53,75,3779.75,3781.26,9.77,C,right,0.72,11,0.68,15,0.82,8,0.52,25,-999,1.0,2,1,3,-3.0,0.0,3.0,0.0,-3.0,-1.0,1
