subject,block,block_onset,trial,fixation_cross_onset,trial_onset,rt,choice,key,pA,mA,pB,mB,pCA,mCA,pCB,mCB,missing,condition,position_A,position_B,position_C,noise_Ap,noise_Am,noise_Bp,noise_Bm,noise_Cp,noise_Cm,attribute_positions
5,Practice,6535.69,P1,6535.73,6537.24,7.08,A,right,0.78,7,0.62,17,0.85,3,0.55,24,-999,2.0,3,1,2,3.0,-2.0,-3.0,2.0,0.0,-1.0,1
5,Practice,6535.69,P2,6544.67,6546.19,6.04,A,left,0.72,7,0.62,16,0.88,5,0.58,26,-999,2.0,1,2,3,-3.0,-2.0,-3.0,1.0,3.0,1.0,10
5,Practice,6535.69,P3,6552.57,6554.09,8.1,C,left,0.75,11,0.68,13,0.85,4,0.55,25,-999,1.0,2,3,1,0.0,2.0,3.0,-2.0,0.0,0.0,110
5,Practice,6535.69,P4,6562.53,6564.05,6.2,C,mid,0.75,9,0.65,15,0.88,5,0.58,26,-999,1.0,3,1,2,0.0,0.0,0.0,0.0,3.0,1.0,100
5,Practice,6535.69,P5,6570.6,6572.11,5.45,A,left,0.72,11,0.62,13,0.85,6,0.55,27,-999,1.0,1,3,2,-3.0,2.0,-3.0,-2.0,0.0,2.0,101
5,Practice,6535.69,P6,6577.91,6579.43,5.34,A,mid,0.78,7,0.62,13,0.82,6,0.52,27,-999,2.0,2,3,1,3.0,-2.0,-3.0,-2.0,-3.0,2.0,110
5,Practice,6535.69,P7,6585.11,6586.63,4.89,A,mid,0.75,7,0.65,17,0.85,5,0.55,26,-999,2.0,2,1,3,0.0,-2.0,0.0,2.0,0.0,1.0,111
5,Practice,6535.69,P8,6591.86,6593.37,5.03,A,right,0.72,8,0.68,15,0.82,6,0.52,27,-999,2.0,3,1,2,-3.0,-1.0,3.0,0.0,-3.0,2.0,110
5,Practice,6535.69,P9,6598.74,6600.26,4.4,A,right,0.78,8,0.62,16,0.88,5,0.58,26,-999,1.0,3,1,2,3.0,-1.0,-3.0,1.0,3.0,1.0,1
5,Practice,6535.69,P10,6604.99,6606.5,5.09,A,left,0.75,10,0.65,16,0.82,2,0.52,23,-999,2.0,1,2,3,0.0,1.0,0.0,1.0,-3.0,-2.0,101
5,Practice,6535.69,P11,6611.93,6613.45,3.75,A,mid,0.72,8,0.65,15,0.85,5,0.55,26,-999,2.0,2,3,1,-3.0,-1.0,0.0,0.0,0.0,1.0,0
5,Practice,6535.69,P12,6617.55,6619.07,3.71,A,mid,0.72,8,0.68,15,0.85,5,0.55,26,-999,1.0,2,3,1,-3.0,-1.0,3.0,0.0,0.0,1.0,101
5,Practice,6535.69,P13,6623.11,6624.63,3.4,A,mid,0.78,11,0.68,16,0.88,5,0.58,26,-999,1.0,2,1,3,3.0,2.0,3.0,1.0,3.0,1.0,111
5,Practice,6535.69,P14,6628.36,6629.88,6.97,B,mid,0.72,11,0.62,17,0.82,3,0.52,24,-999,2.0,3,2,1,-3.0,2.0,-3.0,2.0,-3.0,-1.0,0
5,Practice,6535.69,P15,6637.19,6638.71,8.98,B,right,0.78,7,0.68,14,0.88,5,0.58,26,-999,2.0,2,3,1,3.0,-2.0,3.0,-1.0,3.0,1.0,10
5,Practice,6535.69,P16,6648.04,6649.56,8.85,B,left,0.78,7,0.65,13,0.82,2,0.52,23,-999,2.0,2,1,3,3.0,-2.0,0.0,-2.0,-3.0,-2.0,1
5,Practice,6535.69,P17,6658.75,6660.27,7.4,A,right,0.72,10,0.65,13,0.82,5,0.52,26,-999,2.0,3,2,1,-3.0,1.0,0.0,-2.0,-3.0,1.0,110
5,Practice,6535.69,P18,6668.02,6669.53,5.14,B,left,0.78,7,0.68,13,0.88,2,0.58,23,-999,2.0,3,1,2,3.0,-2.0,3.0,-2.0,3.0,-2.0,10
5,Practice,6535.69,P19,6675.01,6676.53,5.77,A,right,0.78,11,0.62,15,0.85,4,0.55,25,-999,1.0,3,1,2,3.0,2.0,-3.0,0.0,0.0,0.0,110
5,Practice,6535.69,P20,6682.64,6684.16,6.04,C,mid,0.72,7,0.65,14,0.88,4,0.58,25,-999,1.0,1,3,2,-3.0,-2.0,0.0,-1.0,3.0,0.0,11
5,Practice,6535.69,P21,6690.54,6692.06,6.24,A,right,0.78,9,0.65,16,0.85,2,0.55,23,-999,1.0,3,1,2,3.0,0.0,0.0,1.0,0.0,-2.0,0
5,Practice,6535.69,P22,6698.64,6700.16,6.5,A,left,0.72,9,0.62,15,0.85,2,0.55,23,-999,1.0,1,3,2,-3.0,0.0,-3.0,0.0,0.0,-2.0,10
5,Practice,6535.69,P23,6707.0,6708.52,5.94,A,right,0.72,7,0.65,13,0.88,3,0.58,24,-999,1.0,3,1,2,-3.0,-2.0,0.0,-2.0,3.0,-1.0,100
5,Practice,6535.69,P24,6714.8,6716.32,6.4,B,left,0.78,7,0.65,13,0.82,5,0.52,26,-999,2.0,2,1,3,3.0,-2.0,0.0,-2.0,-3.0,1.0,10
5,Practice,6535.69,P25,6723.06,6724.58,4.92,A,mid,0.78,10,0.68,13,0.85,4,0.55,25,-999,1.0,2,3,1,3.0,1.0,3.0,-2.0,0.0,0.0,111
5,Estimation1,6812.39,E1,6812.45,6813.97,4.34,A,mid,0.75,11,0.65,15,0.85,-999,0.55,20,3,,2,1,3,,,,,,,11
5,Estimation1,6812.39,E2,6818.65,6820.17,3.69,B,right,0.75,8,0.65,15,0.85,-999,0.55,20,1,2.0,1,3,2,,,,,,,101
5,Estimation1,6812.39,E3,6824.2,6825.71,6.58,A,right,0.75,8,0.65,15,0.85,-999,0.55,28,3,,3,1,2,,,,,,,100
5,Estimation1,6812.39,E4,6832.65,6834.16,2.91,B,right,0.75,6,0.65,15,0.85,-999,0.55,28,1,2.0,2,3,1,,,,,,,101
5,Estimation1,6812.39,E5,6837.41,6838.93,6.44,B,mid,0.75,6,0.65,15,0.85,-999,0.55,32,3,,1,2,3,,,,,,,1
5,Estimation1,6812.39,E6,6845.71,6847.22,6.7,B,left,0.75,7,0.65,15,0.85,-999,0.55,32,1,2.0,2,1,3,,,,,,,101
5,Estimation1,6812.39,E7,6854.26,6855.77,9.26,A,left,0.75,7,0.65,15,0.85,-999,0.55,34,3,,1,2,3,,,,,,,100
5,Estimation1,6812.39,E8,6865.37,6866.88,4.54,C,left,0.75,7,0.65,15,0.85,4,0.55,34,1,2.0,2,3,1,,,,,,,100
5,Estimation1,6812.39,E9,6871.77,6873.28,8.83,C,left,0.75,7,0.65,15,0.85,4,0.55,33,2,1.0,3,2,1,,,,,,,100
5,Estimation1,6812.39,E10,6882.45,6883.96,6.38,C,mid,0.75,7,0.65,15,0.85,3,0.55,33,1,2.0,1,3,2,,,,,,,0
5,Estimation1,6812.39,E11,6890.68,6892.19,3.69,A,left,0.75,7,0.65,15,0.85,3,0.55,33,2,1.0,1,2,3,,,,,,,101
5,Estimation1,6812.39,E12,6896.22,6897.74,16.82,C,right,0.75,7,0.65,15,0.85,4,0.55,33,1,2.0,2,1,3,,,,,,,110
5,Estimation1,6812.39,E13,6914.9,6916.42,3.83,A,mid,0.75,7,0.65,15,0.85,4,0.55,33,2,1.0,2,1,3,,,,,,,11
5,1,6926.81,1,6926.88,6928.4,4.03,C,mid,0.31,32,0.38,26,0.85,11,-999.0,-999,-999,99.0,1,3,2,0.0,0.0,0.0,0.0,0.0,0.0,0
5,1,6926.81,2,6932.76,6934.28,5.65,B,right,0.78,7,0.68,15,0.82,4,0.52,33,-999,1.0,1,3,2,3.0,0.0,3.0,0.0,-3.0,0.0,0
5,1,6926.81,3,6940.26,6941.78,7.82,B,left,0.72,7,0.62,14,0.7,6,0.6,13,-999,32.0,2,1,3,-3.0,0.0,-3.0,-1.0,0.0,0.0,111
5,1,6926.81,4,6949.94,6951.46,16.01,B,right,0.75,6,0.68,14,0.73,5,0.66,13,-999,31.0,1,3,2,0.0,-1.0,3.0,-1.0,0.0,-1.0,110
5,1,6926.81,5,6967.8,6969.32,7.31,C,mid,0.27,37,0.61,16,0.89,11,-999.0,-999,-999,99.0,1,3,2,0.0,0.0,0.0,0.0,0.0,0.0,111
5,1,6926.81,6,6976.97,6978.48,7.53,C,left,0.32,31,0.6,16,0.78,12,-999.0,-999,-999,99.0,3,2,1,0.0,0.0,0.0,0.0,0.0,0.0,111
5,1,6926.81,7,6986.36,6987.88,7.67,A,left,0.78,6,0.68,15,0.88,4,0.58,33,-999,1.0,1,3,2,3.0,-1.0,3.0,0.0,3.0,0.0,101
5,1,6926.81,8,6995.89,6997.41,7.57,A,left,0.72,7,0.62,15,0.7,6,0.6,14,-999,31.0,1,2,3,-3.0,0.0,-3.0,0.0,0.0,-1.0,101
5,1,6926.81,9,7005.32,7006.84,12.12,A,right,0.75,7,0.65,14,0.73,6,0.63,13,-999,31.0,3,2,1,0.0,0.0,0.0,-1.0,0.0,0.0,1
5,1,6926.81,10,7019.3,7020.82,13.24,A,left,0.75,6,0.62,15,0.88,4,0.58,33,-999,1.0,1,3,2,0.0,-1.0,-3.0,0.0,3.0,0.0,100
5,1,6926.81,11,7034.4,7035.91,10.16,A,mid,0.78,7,0.68,15,0.76,6,0.66,14,-999,31.0,2,3,1,3.0,0.0,3.0,0.0,0.0,0.0,101
5,1,6926.81,12,7046.41,7047.93,11.67,C,left,0.27,37,0.47,21,0.86,11,-999.0,-999,-999,99.0,3,2,1,0.0,0.0,0.0,0.0,0.0,0.0,111
5,1,6926.81,13,7059.94,7061.45,10.69,B,right,0.78,7,0.65,15,0.76,6,0.63,14,-999,32.0,1,3,2,3.0,0.0,0.0,0.0,0.0,0.0,101
5,1,6926.81,14,7072.48,7074.0,8.93,B,left,0.72,7,0.65,14,0.7,6,0.63,13,-999,32.0,3,1,2,-3.0,0.0,0.0,-1.0,3.0,0.0,0
5,1,6926.81,15,7083.28,7084.8,14.41,B,left,0.72,7,0.68,15,0.82,3,0.52,32,-999,1.0,3,1,2,-3.0,0.0,3.0,0.0,-3.0,-1.0,0
5,1,6926.81,16,7099.54,7101.06,11.24,B,left,0.72,7,0.68,15,0.82,4,0.52,33,-999,2.0,3,1,2,-3.0,0.0,3.0,0.0,-3.0,0.0,111
5,1,6926.81,17,7112.64,7114.15,14.35,B,left,0.72,6,0.65,15,0.88,3,0.58,32,-999,2.0,3,1,2,-3.0,-1.0,0.0,0.0,3.0,-1.0,10
5,1,6926.81,18,7128.83,7130.35,5.26,B,mid,0.72,6,0.62,15,0.7,5,0.6,14,-999,32.0,3,2,1,-3.0,-1.0,-3.0,0.0,-3.0,-1.0,110
5,1,6926.81,19,7135.95,7137.46,9.91,B,left,0.78,6,0.68,15,0.85,3,0.55,32,-999,1.0,2,1,3,3.0,-1.0,3.0,0.0,0.0,-1.0,0
5,1,6926.81,20,7147.71,7149.23,13.35,A,mid,0.72,7,0.65,15,0.7,6,0.63,14,-999,31.0,2,1,3,-3.0,0.0,0.0,0.0,-3.0,-1.0,11
5,1,6926.81,21,7162.9,7164.42,16.47,A,mid,0.78,7,0.65,14,0.82,3,0.52,32,-999,1.0,2,1,3,3.0,0.0,0.0,-1.0,-3.0,-1.0,101
5,1,6926.81,22,7181.23,7182.75,5.93,A,mid,0.75,7,0.65,15,0.85,4,0.55,33,-999,1.0,2,1,3,0.0,0.0,0.0,0.0,0.0,0.0,1
5,1,6926.81,23,7189.01,7190.53,8.68,B,right,0.72,7,0.68,15,0.82,3,0.52,32,-999,1.0,2,3,1,-3.0,0.0,3.0,0.0,-3.0,-1.0,11
5,1,6926.81,24,7199.56,7201.08,16.05,A,left,0.75,7,0.65,15,0.82,3,0.52,32,-999,1.0,1,2,3,0.0,0.0,0.0,0.0,-3.0,-1.0,100
5,1,6926.81,25,7217.47,7218.99,18.82,A,left,0.72,7,0.62,15,0.7,6,0.6,14,-999,32.0,1,3,2,-3.0,0.0,-3.0,0.0,0.0,0.0,11
5,1,6926.81,26,7238.15,7239.66,16.13,A,left,0.75,7,0.65,15,0.73,6,0.63,14,-999,31.0,1,2,3,0.0,0.0,0.0,0.0,0.0,-1.0,101
5,1,6926.81,27,7256.14,7257.66,13.18,C,right,0.72,6,0.62,14,0.88,4,0.58,33,-999,2.0,1,2,3,-3.0,-1.0,-3.0,-1.0,3.0,0.0,111
5,1,6926.81,28,7271.19,7272.7,17.48,B,left,0.78,7,0.65,14,0.82,3,0.52,32,-999,2.0,2,1,3,3.0,0.0,0.0,-1.0,-3.0,-1.0,101
5,1,6926.81,29,7290.53,7292.05,5.6,A,mid,0.75,7,0.62,15,0.88,3,0.58,32,-999,1.0,2,3,1,0.0,0.0,-3.0,0.0,3.0,-1.0,100
5,1,6926.81,30,7297.99,7299.51,12.67,A,mid,0.72,7,0.65,15,0.82,3,0.52,32,-999,1.0,2,1,3,-3.0,0.0,0.0,0.0,-3.0,-1.0,0
5,1,6926.81,31,7312.52,7314.04,12.32,C,left,0.72,6,0.68,15,0.88,4,0.58,33,-999,2.0,2,3,1,-3.0,-1.0,3.0,0.0,3.0,0.0,110
5,1,6926.81,32,7326.7,7328.22,10.45,C,right,0.19,52,0.59,16,0.81,12,-999.0,-999,-999,99.0,1,2,3,0.0,0.0,0.0,0.0,0.0,0.0,10
5,1,6926.81,33,7339.01,7340.53,15.85,B,right,0.75,6,0.65,14,0.73,5,0.63,13,-999,32.0,1,3,2,0.0,-1.0,0.0,-1.0,3.0,0.0,100
5,1,6926.81,34,7356.72,7358.24,9.08,B,left,0.75,7,0.62,14,0.88,4,0.58,33,-999,2.0,3,1,2,0.0,0.0,-3.0,-1.0,3.0,0.0,110
5,1,6926.81,35,7367.67,7369.19,18.15,B,right,0.72,7,0.65,15,0.82,3,0.52,32,-999,2.0,2,3,1,-3.0,0.0,0.0,0.0,-3.0,-1.0,0
5,1,6926.81,36,7387.68,7389.2,6.87,C,right,0.29,34,0.42,23,0.72,13,-999.0,-999,-999,99.0,2,1,3,0.0,0.0,0.0,0.0,0.0,0.0,111
5,1,6926.81,37,7396.41,7397.93,9.19,B,mid,0.78,6,0.68,15,0.76,5,0.66,14,-999,31.0,1,2,3,3.0,-1.0,3.0,0.0,0.0,0.0,100
5,1,6926.81,38,7491.63,7493.15,18.56,A,left,0.72,7,0.62,15,0.7,6,0.6,14,-999,32.0,1,2,3,-3.0,0.0,-3.0,0.0,3.0,-1.0,110
5,1,6926.81,39,7512.04,7513.56,9.1,C,right,0.16,62,0.46,21,0.87,11,-999.0,-999,-999,99.0,1,2,3,0.0,0.0,0.0,0.0,0.0,0.0,11
5,1,6926.81,40,7522.99,7524.5,5.6,A,right,0.78,7,0.65,14,0.82,4,0.52,33,-999,1.0,3,1,2,3.0,0.0,0.0,-1.0,-3.0,0.0,110
5,1,6926.81,41,7530.43,7531.95,14.81,B,left,0.75,6,0.68,14,0.85,3,0.55,32,-999,2.0,2,1,3,0.0,-1.0,3.0,-1.0,0.0,-1.0,110
5,1,6926.81,42,7547.1,7548.61,11.77,C,mid,0.72,7,0.68,14,0.88,4,0.58,33,-999,2.0,1,3,2,-3.0,0.0,3.0,-1.0,3.0,0.0,1
5,1,6926.81,43,7560.72,7562.24,10.27,B,mid,0.75,6,0.62,15,0.73,5,0.6,14,-999,32.0,1,2,3,0.0,-1.0,-3.0,0.0,-3.0,0.0,110
5,1,6926.81,44,7572.85,7574.37,18.3,B,left,0.72,7,0.62,14,0.85,4,0.55,33,-999,2.0,3,1,2,-3.0,0.0,-3.0,-1.0,0.0,0.0,10
5,1,6926.81,45,7593.01,7594.53,10.83,A,right,0.78,7,0.68,15,0.88,3,0.58,32,-999,1.0,3,2,1,3.0,0.0,3.0,0.0,3.0,-1.0,1
5,1,6926.81,46,7605.69,7607.21,6.11,A,mid,0.78,7,0.62,14,0.85,3,0.55,32,-999,1.0,2,1,3,3.0,0.0,-3.0,-1.0,0.0,-1.0,10
5,1,6926.81,47,7613.66,7615.17,9.84,A,mid,0.78,6,0.68,14,0.76,5,0.66,13,-999,32.0,2,3,1,3.0,-1.0,3.0,-1.0,3.0,-1.0,11
5,1,6926.81,48,7625.35,7626.87,18.06,A,left,0.78,7,0.65,15,0.76,6,0.63,14,-999,32.0,1,2,3,3.0,0.0,0.0,0.0,-3.0,-1.0,10
5,1,6926.81,49,7645.26,7646.78,18.16,A,left,0.78,7,0.62,14,0.85,4,0.55,33,-999,2.0,1,2,3,3.0,0.0,-3.0,-1.0,0.0,0.0,11
5,1,6926.81,50,7665.27,7666.79,10.56,A,right,0.72,6,0.65,14,0.7,5,0.63,13,-999,31.0,3,2,1,-3.0,-1.0,0.0,-1.0,3.0,-1.0,0
5,1,6926.81,51,7677.7,7679.22,9.75,B,left,0.72,6,0.68,14,0.85,4,0.55,33,-999,2.0,2,1,3,-3.0,-1.0,3.0,-1.0,0.0,0.0,1
5,1,6926.81,52,7689.32,7690.83,16.69,A,mid,0.78,6,0.62,15,0.76,5,0.6,14,-999,31.0,2,1,3,3.0,-1.0,-3.0,0.0,0.0,0.0,10
5,1,6926.81,53,7707.86,7709.38,9.7,C,right,0.24,41,0.37,27,0.76,13,-999.0,-999,-999,99.0,1,2,3,0.0,0.0,0.0,0.0,0.0,0.0,0
5,1,6926.81,54,7719.41,7720.92,14.02,B,left,0.75,6,0.68,14,0.73,5,0.66,13,-999,32.0,2,1,3,0.0,-1.0,3.0,-1.0,0.0,0.0,100
5,1,6926.81,55,7735.28,7736.8,13.14,A,left,0.78,6,0.62,15,0.85,3,0.55,32,-999,1.0,1,2,3,3.0,-1.0,-3.0,0.0,0.0,-1.0,0
5,1,6926.81,56,7750.3,7751.81,9.55,C,left,0.32,31,0.48,20,0.85,11,-999.0,-999,-999,99.0,2,3,1,0.0,0.0,0.0,0.0,0.0,0.0,10
5,1,6926.81,57,7761.71,7763.22,10.51,A,left,0.75,7,0.65,15,0.73,6,0.63,14,-999,31.0,1,2,3,0.0,0.0,0.0,0.0,0.0,0.0,101
5,1,6926.81,58,7774.09,7775.6,4.4,A,left,0.72,6,0.65,15,0.7,5,0.63,14,-999,31.0,1,3,2,-3.0,-1.0,0.0,0.0,3.0,-1.0,111
5,1,6926.81,59,7780.35,7781.87,10.85,A,mid,0.75,7,0.65,14,0.85,3,0.55,32,-999,2.0,2,1,3,0.0,0.0,0.0,-1.0,0.0,-1.0,100
5,1,6926.81,60,7793.06,7794.58,13.35,A,right,0.78,7,0.62,15,0.76,6,0.6,14,-999,32.0,3,1,2,3.0,0.0,-3.0,0.0,3.0,0.0,110
5,1,6926.81,61,7808.28,7809.79,13.89,A,right,0.75,6,0.65,15,0.73,5,0.63,14,-999,31.0,3,2,1,0.0,-1.0,0.0,0.0,3.0,-1.0,1
5,1,6926.81,62,7824.02,7825.54,16.98,A,right,0.75,7,0.65,14,0.73,6,0.63,13,-999,31.0,3,1,2,0.0,0.0,0.0,-1.0,-3.0,-1.0,111
5,1,6926.81,63,7842.87,7844.38,12.18,A,right,0.75,6,0.68,15,0.88,4,0.58,33,-999,1.0,3,2,1,0.0,-1.0,3.0,0.0,3.0,0.0,0
5,1,6926.81,64,7856.89,7858.41,7.72,B,mid,0.78,6,0.62,15,0.76,5,0.6,14,-999,32.0,1,2,3,3.0,-1.0,-3.0,0.0,-3.0,-1.0,0
5,1,6926.81,65,7866.47,7867.99,12.66,B,right,0.78,6,0.62,14,0.76,5,0.6,13,-999,32.0,2,3,1,3.0,-1.0,-3.0,-1.0,0.0,-1.0,110
5,1,6926.81,66,7880.99,7882.5,6.09,A,mid,0.72,6,0.65,15,0.7,5,0.63,14,-999,31.0,2,1,3,-3.0,-1.0,0.0,0.0,3.0,-1.0,101
5,1,6926.81,67,7888.93,7890.45,7.02,C,right,0.28,35,0.67,14,0.78,12,-999.0,-999,-999,99.0,2,1,3,0.0,0.0,0.0,0.0,0.0,0.0,111
5,1,6926.81,68,7897.81,7899.33,13.81,B,right,0.72,7,0.68,14,0.7,6,0.66,13,-999,32.0,1,3,2,-3.0,0.0,3.0,-1.0,0.0,-1.0,10
5,1,6926.81,69,7913.48,7914.99,23.84,B,mid,0.72,6,0.68,14,0.7,5,0.66,13,-999,31.0,1,2,3,-3.0,-1.0,3.0,-1.0,-3.0,0.0,111
5,1,6926.81,70,7939.17,7940.68,14.98,B,left,0.78,6,0.65,15,0.76,5,0.63,14,-999,32.0,3,1,2,3.0,-1.0,0.0,0.0,-3.0,-1.0,111
5,1,6926.81,71,7956.01,7957.53,8.12,A,right,0.78,7,0.62,14,0.76,6,0.6,13,-999,31.0,3,2,1,3.0,0.0,-3.0,-1.0,-3.0,0.0,100
5,1,6926.81,72,7965.99,7967.51,10.42,A,right,0.72,7,0.62,14,0.85,4,0.55,33,-999,2.0,3,1,2,-3.0,0.0,-3.0,-1.0,0.0,0.0,0
5,1,6926.81,73,7978.27,7979.79,16.73,B,right,0.75,6,0.62,15,0.88,3,0.58,32,-999,2.0,1,3,2,0.0,-1.0,-3.0,0.0,3.0,-1.0,110
5,1,6926.81,74,7996.86,7998.38,10.1,C,mid,0.19,52,0.56,17,0.8,12,-999.0,-999,-999,99.0,3,1,2,0.0,0.0,0.0,0.0,0.0,0.0,110
5,1,6926.81,75,8008.81,8010.33,11.76,B,left,0.72,6,0.65,15,0.85,4,0.55,33,-999,2.0,2,1,3,-3.0,-1.0,0.0,0.0,0.0,0.0,110
5,Estimation2,8208.13,E1,8208.2,8209.71,5.61,A,right,0.75,11,0.65,15,0.85,-999,0.55,20,3,,3,2,1,,,,,,,110
5,Estimation2,8208.13,E2,8215.66,8217.18,4.85,B,mid,0.75,8,0.65,15,0.85,-999,0.55,20,1,2.0,3,2,1,,,,,,,100
5,Estimation2,8208.13,E3,8222.36,8223.87,12.28,A,mid,0.75,8,0.65,15,0.85,-999,0.55,28,3,,2,1,3,,,,,,,110
5,Estimation2,8208.13,E4,8236.49,8238.0,5.65,B,mid,0.75,6,0.65,15,0.85,-999,0.55,28,1,2.0,1,2,3,,,,,,,0
5,Estimation2,8208.13,E5,8243.98,8245.5,26.67,A,right,0.75,6,0.65,15,0.85,-999,0.55,32,3,,3,1,2,,,,,,,1
5,Estimation2,8208.13,E6,8272.51,8274.02,15.52,C,mid,0.75,5,0.65,15,0.85,-999,0.55,32,1,2.0,1,3,2,,,,,,,1
5,Estimation2,8208.13,E7,8289.89,8291.4,11.62,B,right,0.75,5,0.65,15,0.85,-999,0.55,30,3,,1,3,2,,,,,,,0
5,Estimation2,8208.13,E8,8303.36,8304.88,5.57,B,mid,0.75,6,0.65,15,0.85,-999,0.55,30,1,2.0,1,2,3,,,,,,,0
5,Estimation2,8208.13,E9,8310.8,8312.31,17.75,A,right,0.75,6,0.65,15,0.85,-999,0.55,31,3,,3,1,2,,,,,,,101
5,Estimation2,8208.13,E10,8330.41,8331.92,6.44,B,left,0.75,6,0.65,15,0.85,3,0.55,31,1,2.0,3,1,2,,,,,,,10
5,Estimation2,8208.13,E11,8338.7,8340.22,4.51,A,right,0.75,6,0.65,15,0.85,3,0.55,32,2,1.0,3,2,1,,,,,,,110
5,Estimation2,8208.13,E12,8345.07,8346.58,3.9,B,left,0.75,6,0.65,15,0.85,4,0.55,32,1,2.0,3,1,2,,,,,,,110
5,Estimation2,8208.13,E13,8350.83,8352.35,8.03,C,right,0.75,6,0.65,15,0.85,4,0.55,32,2,1.0,1,2,3,,,,,,,101
5,2,8375.88,1,8375.94,8377.46,27.02,B,left,0.78,6,0.68,15,0.76,5,0.66,14,-999,31.0,3,1,2,3.0,0.0,3.0,0.0,0.0,0.0,11
5,2,8375.88,2,8404.81,8406.33,7.6,B,mid,0.72,5,0.68,14,0.85,4,0.55,32,-999,2.0,1,2,3,-3.0,-1.0,3.0,-1.0,0.0,0.0,101
5,2,8375.88,3,8414.28,8415.79,10.17,B,right,0.72,5,0.65,15,0.7,4,0.63,14,-999,31.0,1,3,2,-3.0,-1.0,0.0,0.0,3.0,-1.0,111
5,2,8375.88,4,8426.31,8427.82,7.32,C,right,0.24,41,0.37,27,0.76,13,-999.0,-999,-999,99.0,2,1,3,0.0,0.0,0.0,0.0,0.0,0.0,11
5,2,8375.88,5,8435.47,8436.99,11.6,B,left,0.78,6,0.65,15,0.76,5,0.63,14,-999,32.0,2,1,3,3.0,0.0,0.0,0.0,0.0,0.0,100
5,2,8375.88,6,8448.93,8450.45,19.72,B,mid,0.72,6,0.68,15,0.82,3,0.52,31,-999,1.0,3,2,1,-3.0,0.0,3.0,0.0,-3.0,-1.0,0
5,2,8375.88,7,8470.51,8472.03,11.86,A,mid,0.78,5,0.62,15,0.76,4,0.6,14,-999,31.0,2,3,1,3.0,-1.0,-3.0,0.0,0.0,0.0,111
5,2,8375.88,8,8484.22,8485.74,14.79,B,mid,0.72,6,0.62,15,0.7,5,0.6,14,-999,32.0,3,2,1,-3.0,0.0,-3.0,0.0,0.0,0.0,0
5,2,8375.88,9,8500.87,8502.38,9.76,A,mid,0.78,6,0.68,15,0.88,3,0.58,31,-999,1.0,2,1,3,3.0,0.0,3.0,0.0,3.0,-1.0,1
5,2,8375.88,10,8512.48,8514.0,20.64,B,mid,0.72,6,0.68,15,0.82,3,0.52,31,-999,1.0,3,2,1,-3.0,0.0,3.0,0.0,-3.0,-1.0,10
5,2,8375.88,11,8534.97,8536.49,11.57,B,left,0.75,5,0.65,15,0.73,4,0.63,14,-999,31.0,3,1,2,0.0,-1.0,0.0,0.0,3.0,-1.0,110
5,2,8375.88,12,8548.4,8549.92,16.37,C,mid,0.72,6,0.62,14,0.85,4,0.55,32,-999,2.0,3,1,2,-3.0,0.0,-3.0,-1.0,0.0,0.0,0
5,2,8375.88,13,8566.63,8568.14,6.12,A,mid,0.75,6,0.65,15,0.82,3,0.52,31,-999,1.0,2,1,3,0.0,0.0,0.0,0.0,-3.0,-1.0,110
5,2,8375.88,14,8574.61,8576.13,15.59,B,left,0.72,6,0.65,15,0.7,5,0.63,14,-999,31.0,3,1,2,-3.0,0.0,0.0,0.0,-3.0,-1.0,110
5,2,8375.88,15,8592.05,8593.57,10.18,B,right,0.72,5,0.68,14,0.7,4,0.66,13,-999,31.0,1,3,2,-3.0,-1.0,3.0,-1.0,-3.0,0.0,0
5,2,8375.88,16,8604.08,8605.6,13.3,A,right,0.75,6,0.65,15,0.73,5,0.63,14,-999,31.0,3,2,1,0.0,0.0,0.0,0.0,0.0,-1.0,1
5,2,8375.88,17,8619.23,8620.74,9.96,B,right,0.72,6,0.68,14,0.7,5,0.66,13,-999,32.0,2,3,1,-3.0,0.0,3.0,-1.0,0.0,-1.0,11
5,2,8375.88,18,8631.04,8632.56,9.39,B,right,0.75,5,0.68,14,0.73,4,0.66,13,-999,32.0,1,3,2,0.0,-1.0,3.0,-1.0,0.0,0.0,10
5,2,8375.88,19,8642.29,8643.8,9.3,A,right,0.78,5,0.68,15,0.85,3,0.55,31,-999,1.0,3,2,1,3.0,-1.0,3.0,0.0,0.0,-1.0,10
5,2,8375.88,20,8653.45,8654.97,7.55,C,mid,0.27,37,0.47,21,0.86,11,-999.0,-999,-999,99.0,3,1,2,0.0,0.0,0.0,0.0,0.0,0.0,11
5,2,8375.88,21,8662.86,8664.38,16.34,B,right,0.72,6,0.65,14,0.7,5,0.63,13,-999,32.0,2,3,1,-3.0,0.0,0.0,-1.0,3.0,0.0,101
5,2,8375.88,22,8681.06,8682.57,11.27,C,left,0.16,62,0.46,21,0.87,11,-999.0,-999,-999,99.0,3,2,1,0.0,0.0,0.0,0.0,0.0,0.0,10
5,2,8375.88,23,8694.19,8695.7,10.55,B,mid,0.78,5,0.62,15,0.76,4,0.6,14,-999,32.0,3,2,1,3.0,-1.0,-3.0,0.0,-3.0,-1.0,111
5,2,8375.88,24,8706.6,8708.12,16.93,B,left,0.72,5,0.68,15,0.88,4,0.58,32,-999,2.0,3,1,2,-3.0,-1.0,3.0,0.0,3.0,0.0,10
5,2,8375.88,25,8725.39,8726.91,6.13,B,right,0.72,6,0.62,14,0.7,5,0.6,13,-999,32.0,2,3,1,-3.0,0.0,-3.0,-1.0,0.0,0.0,100
5,2,8375.88,26,8733.37,8734.89,5.57,B,mid,0.75,5,0.62,15,0.73,4,0.6,14,-999,32.0,1,2,3,0.0,-1.0,-3.0,0.0,-3.0,0.0,11
5,2,8375.88,27,8740.79,8742.3,6.03,B,right,0.75,5,0.65,14,0.73,4,0.63,13,-999,32.0,2,3,1,0.0,-1.0,0.0,-1.0,3.0,0.0,1
5,2,8375.88,28,8748.67,8750.18,5.34,A,left,0.78,6,0.62,14,0.85,3,0.55,31,-999,1.0,1,3,2,3.0,0.0,-3.0,-1.0,0.0,-1.0,0
5,2,8375.88,29,8755.87,8757.38,7.71,A,right,0.78,5,0.65,15,0.76,4,0.63,14,-999,32.0,3,1,2,3.0,-1.0,0.0,0.0,-3.0,-1.0,100
5,2,8375.88,30,8765.43,8766.95,5.44,C,right,0.19,52,0.59,16,0.81,12,-999.0,-999,-999,99.0,1,2,3,0.0,0.0,0.0,0.0,0.0,0.0,0
5,2,8375.88,31,8772.73,8774.24,9.08,C,right,0.75,5,0.62,15,0.88,3,0.58,31,-999,2.0,2,1,3,0.0,-1.0,-3.0,0.0,3.0,-1.0,10
5,2,8375.88,32,8783.67,8785.19,12.31,B,right,0.78,6,0.62,14,0.85,4,0.55,32,-999,2.0,1,3,2,3.0,0.0,-3.0,-1.0,0.0,0.0,111
5,2,8375.88,33,8797.84,8799.35,5.02,A,left,0.78,6,0.65,14,0.82,4,0.52,32,-999,1.0,1,2,3,3.0,0.0,0.0,-1.0,-3.0,0.0,10
5,2,8375.88,34,8804.72,8806.23,5.72,A,right,0.78,6,0.65,14,0.82,3,0.52,31,-999,1.0,3,2,1,3.0,0.0,0.0,-1.0,-3.0,-1.0,100
5,2,8375.88,35,8812.28,8813.8,14.82,C,right,0.29,34,0.42,23,0.72,13,-999.0,-999,-999,99.0,1,2,3,0.0,0.0,0.0,0.0,0.0,0.0,101
5,2,8375.88,36,8828.96,8830.48,7.47,A,left,0.78,6,0.62,14,0.76,5,0.6,13,-999,31.0,1,3,2,3.0,0.0,-3.0,-1.0,-3.0,0.0,11
5,2,8375.88,37,8838.29,8839.81,6.82,B,right,0.72,6,0.62,15,0.7,5,0.6,14,-999,32.0,1,3,2,-3.0,0.0,-3.0,0.0,3.0,-1.0,11
5,2,8375.88,38,8964.51,8966.03,7.8,A,right,0.78,6,0.62,15,0.76,5,0.6,14,-999,32.0,3,1,2,3.0,0.0,-3.0,0.0,3.0,0.0,111
5,2,8375.88,39,8974.16,8975.68,17.84,B,right,0.72,6,0.65,15,0.82,3,0.52,31,-999,2.0,1,3,2,-3.0,0.0,0.0,0.0,-3.0,-1.0,111
5,2,8375.88,40,8993.85,8995.37,11.1,C,right,0.32,31,0.6,16,0.78,12,-999.0,-999,-999,99.0,2,1,3,0.0,0.0,0.0,0.0,0.0,0.0,10
5,2,8375.88,41,9006.82,9008.33,7.87,C,right,0.75,5,0.62,15,0.88,4,0.58,32,-999,1.0,1,2,3,0.0,-1.0,-3.0,0.0,3.0,0.0,0
5,2,8375.88,42,9016.55,9018.06,7.18,A,right,0.72,5,0.65,15,0.7,4,0.63,14,-999,31.0,3,1,2,-3.0,-1.0,0.0,0.0,3.0,-1.0,0
5,2,8375.88,43,9025.58,9027.09,8.64,B,mid,0.72,5,0.62,14,0.88,4,0.58,32,-999,2.0,1,2,3,-3.0,-1.0,-3.0,-1.0,3.0,0.0,100
5,2,8375.88,44,9036.07,9037.59,12.3,A,mid,0.75,5,0.68,15,0.88,4,0.58,32,-999,1.0,2,1,3,0.0,-1.0,3.0,0.0,3.0,0.0,101
5,2,8375.88,45,9050.24,9051.75,13.0,B,mid,0.75,6,0.65,14,0.85,3,0.55,31,-999,2.0,1,2,3,0.0,0.0,0.0,-1.0,0.0,-1.0,100
5,2,8375.88,46,9065.1,9066.61,9.15,B,right,0.72,5,0.65,15,0.85,4,0.55,32,-999,2.0,2,3,1,-3.0,-1.0,0.0,0.0,0.0,0.0,11
5,2,8375.88,47,9076.11,9077.63,9.23,B,mid,0.75,5,0.68,14,0.85,3,0.55,31,-999,2.0,3,2,1,0.0,-1.0,3.0,-1.0,0.0,-1.0,11
5,2,8375.88,48,9087.19,9088.71,24.69,C,right,0.78,5,0.62,15,0.85,3,0.55,31,-999,1.0,2,1,3,3.0,-1.0,-3.0,0.0,0.0,-1.0,10
5,2,8375.88,49,9113.75,9115.27,13.37,A,left,0.78,5,0.68,15,0.76,4,0.66,14,-999,31.0,1,3,2,3.0,-1.0,3.0,0.0,0.0,0.0,10
5,2,8375.88,50,9128.98,9130.49,12.75,B,left,0.78,5,0.62,14,0.76,4,0.6,13,-999,32.0,2,1,3,3.0,-1.0,-3.0,-1.0,0.0,-1.0,110
5,2,8375.88,51,9143.59,9145.11,5.16,C,mid,0.31,32,0.38,26,0.85,11,-999.0,-999,-999,99.0,1,3,2,0.0,0.0,0.0,0.0,0.0,0.0,0
5,2,8375.88,52,9150.6,9152.12,5.71,C,right,0.78,5,0.68,15,0.88,4,0.58,32,-999,1.0,1,2,3,3.0,-1.0,3.0,0.0,3.0,0.0,110
5,2,8375.88,53,9158.17,9159.68,3.9,B,right,0.75,5,0.68,14,0.73,4,0.66,13,-999,31.0,2,3,1,0.0,-1.0,3.0,-1.0,0.0,-1.0,111
5,2,8375.88,54,9163.93,9165.45,5.19,C,right,0.19,52,0.56,17,0.8,12,-999.0,-999,-999,99.0,2,1,3,0.0,0.0,0.0,0.0,0.0,0.0,101
5,2,8375.88,55,9170.98,9172.5,6.51,A,right,0.75,6,0.65,15,0.73,5,0.63,14,-999,31.0,3,2,1,0.0,0.0,0.0,0.0,0.0,0.0,100
5,2,8375.88,56,9179.34,9180.86,6.27,B,mid,0.75,6,0.62,14,0.88,4,0.58,32,-999,2.0,1,2,3,0.0,0.0,-3.0,-1.0,3.0,0.0,111
5,2,8375.88,57,9187.47,9188.99,6.29,A,left,0.75,6,0.65,14,0.73,5,0.63,13,-999,31.0,1,2,3,0.0,0.0,0.0,-1.0,0.0,0.0,1
5,2,8375.88,58,9195.62,9197.14,7.37,B,mid,0.78,6,0.65,14,0.82,3,0.52,31,-999,2.0,3,2,1,3.0,0.0,0.0,-1.0,-3.0,-1.0,0
5,2,8375.88,59,9204.85,9206.37,5.8,C,left,0.27,37,0.61,16,0.89,11,-999.0,-999,-999,99.0,2,3,1,0.0,0.0,0.0,0.0,0.0,0.0,10
5,2,8375.88,60,9212.5,9214.02,5.96,A,right,0.78,6,0.68,15,0.82,4,0.52,32,-999,1.0,3,1,2,3.0,0.0,3.0,0.0,-3.0,0.0,111
5,2,8375.88,61,9220.31,9221.83,9.58,A,right,0.72,6,0.62,15,0.7,5,0.6,14,-999,31.0,3,2,1,-3.0,0.0,-3.0,0.0,0.0,-1.0,110
5,2,8375.88,62,9231.76,9233.28,8.43,A,left,0.78,6,0.65,15,0.76,5,0.63,14,-999,32.0,1,2,3,3.0,0.0,0.0,0.0,-3.0,-1.0,100
5,2,8375.88,63,9242.06,9243.57,6.87,C,right,0.28,35,0.67,14,0.78,12,-999.0,-999,-999,99.0,1,2,3,0.0,0.0,0.0,0.0,0.0,0.0,0
5,2,8375.88,64,9250.79,9252.3,14.17,C,right,0.72,5,0.65,14,0.7,4,0.63,13,-999,31.0,1,2,3,-3.0,-1.0,0.0,-1.0,3.0,-1.0,10
5,2,8375.88,65,9266.82,9268.33,20.62,B,left,0.72,6,0.62,14,0.85,4,0.55,32,-999,2.0,3,1,2,-3.0,0.0,-3.0,-1.0,0.0,0.0,0
5,2,8375.88,66,9289.29,9290.81,12.48,B,right,0.72,6,0.68,15,0.82,4,0.52,32,-999,2.0,2,3,1,-3.0,0.0,3.0,0.0,-3.0,0.0,110
5,2,8375.88,67,9303.62,9305.14,11.99,B,mid,0.75,6,0.65,14,0.73,5,0.63,13,-999,31.0,3,2,1,0.0,0.0,0.0,-1.0,-3.0,-1.0,10
5,2,8375.88,68,9317.47,9318.98,4.25,A,right,0.75,6,0.62,15,0.88,3,0.58,31,-999,1.0,3,2,1,0.0,0.0,-3.0,0.0,3.0,-1.0,110
5,2,8375.88,69,9323.58,9325.1,6.6,A,right,0.72,6,0.65,15,0.82,3,0.52,31,-999,1.0,3,1,2,-3.0,0.0,0.0,0.0,-3.0,-1.0,10
5,2,8375.88,70,9332.04,9333.56,8.36,B,left,0.72,6,0.68,14,0.88,4,0.58,32,-999,2.0,2,1,3,-3.0,0.0,3.0,-1.0,3.0,0.0,1
5,2,8375.88,71,9342.26,9343.77,8.53,B,mid,0.78,5,0.68,14,0.76,4,0.66,13,-999,32.0,3,2,1,3.0,-1.0,3.0,-1.0,3.0,-1.0,110
5,2,8375.88,72,9352.65,9354.17,9.92,B,right,0.72,5,0.62,15,0.7,4,0.6,14,-999,32.0,1,3,2,-3.0,-1.0,-3.0,0.0,-3.0,-1.0,110
5,2,8375.88,73,9364.43,9365.95,4.68,B,mid,0.72,5,0.65,15,0.88,3,0.58,31,-999,2.0,3,2,1,-3.0,-1.0,0.0,0.0,3.0,-1.0,110
5,2,8375.88,74,9370.96,9372.48,8.79,A,right,0.75,6,0.65,15,0.85,4,0.55,32,-999,1.0,3,2,1,0.0,0.0,0.0,0.0,0.0,0.0,11
5,2,8375.88,75,9381.61,9383.13,5.48,C,mid,0.32,31,0.48,20,0.85,11,-999.0,-999,-999,99.0,1,3,2,0.0,0.0,0.0,0.0,0.0,0.0,111
5,Estimation3,9542.24,E1,9542.29,9543.81,6.27,A,right,0.75,11,0.65,15,0.85,-999,0.55,20,3,,3,1,2,,,,,,,100
5,Estimation3,9542.24,E2,9550.41,9551.92,7.59,B,mid,0.75,8,0.65,15,0.85,-999,0.55,20,1,2.0,3,2,1,,,,,,,11
5,Estimation3,9542.24,E3,9559.85,9561.37,5.55,A,left,0.75,8,0.65,15,0.85,-999,0.55,28,3,,1,2,3,,,,,,,110
5,Estimation3,9542.24,E4,9567.25,9568.77,5.23,B,mid,0.75,6,0.65,15,0.85,-999,0.55,28,1,2.0,1,2,3,,,,,,,0
5,Estimation3,9542.24,E5,9574.33,9575.85,5.82,A,right,0.75,6,0.65,15,0.85,-999,0.55,32,3,,3,2,1,,,,,,,111
5,Estimation3,9542.24,E6,9582.01,9583.53,8.94,B,left,0.75,5,0.65,15,0.85,-999,0.55,32,1,2.0,3,1,2,,,,,,,101
5,Estimation3,9542.24,E7,9592.81,9594.33,4.73,B,mid,0.75,5,0.65,15,0.85,-999,0.55,34,3,,1,2,3,,,,,,,11
5,Estimation3,9542.24,E8,9599.39,9600.91,3.28,B,mid,0.75,6,0.65,15,0.85,-999,0.55,34,1,2.0,3,2,1,,,,,,,0
5,Estimation3,9542.24,E9,9604.52,9606.04,5.23,B,right,0.75,6,0.65,15,0.85,-999,0.55,35,3,,1,3,2,,,,,,,0
5,Estimation3,9542.24,E10,9611.6,9613.12,3.66,B,right,0.75,6,0.65,15,0.85,3,0.55,35,1,2.0,2,3,1,,,,,,,10
5,Estimation3,9542.24,E11,9617.12,9618.63,5.15,A,mid,0.75,6,0.65,15,0.85,3,0.55,35,2,1.0,2,1,3,,,,,,,11
5,Estimation3,9542.24,E12,9624.12,9625.63,12.54,B,right,0.75,6,0.65,15,0.85,4,0.55,35,1,2.0,1,3,2,,,,,,,100
5,Estimation3,9542.24,E13,9638.51,9640.03,6.39,A,right,0.75,6,0.65,15,0.85,4,0.55,35,2,1.0,3,2,1,,,,,,,101
5,3,9664.17,1,9664.24,9665.75,6.24,B,left,0.72,5,0.68,14,0.85,4,0.55,35,-999,2.0,2,1,3,-3.0,-1.0,3.0,-1.0,0.0,0.0,111
5,3,9664.17,2,9672.33,9673.85,6.51,A,mid,0.78,6,0.65,14,0.82,3,0.52,34,-999,1.0,2,3,1,3.0,0.0,0.0,-1.0,-3.0,-1.0,111
5,3,9664.17,3,9680.7,9682.21,5.58,B,mid,0.72,6,0.62,14,0.85,4,0.55,35,-999,2.0,1,2,3,-3.0,0.0,-3.0,-1.0,0.0,0.0,11
5,3,9664.17,4,9688.13,9689.64,4.39,A,right,0.78,5,0.68,15,0.85,3,0.55,34,-999,1.0,3,1,2,3.0,-1.0,3.0,0.0,0.0,-1.0,111
5,3,9664.17,5,9694.36,9695.88,11.0,B,right,0.75,6,0.65,15,0.85,4,0.55,35,-999,1.0,1,3,2,0.0,0.0,0.0,0.0,0.0,0.0,1
5,3,9664.17,6,9707.22,9708.74,15.76,C,mid,0.75,5,0.68,15,0.88,4,0.58,35,-999,1.0,3,1,2,0.0,-1.0,3.0,0.0,3.0,0.0,10
5,3,9664.17,7,9724.83,9726.35,8.54,A,left,0.78,5,0.62,15,0.85,3,0.55,34,-999,1.0,1,2,3,3.0,-1.0,-3.0,0.0,0.0,-1.0,11
5,3,9664.17,8,9735.23,9736.75,5.66,A,left,0.78,5,0.62,15,0.76,4,0.6,14,-999,31.0,1,3,2,3.0,-1.0,-3.0,0.0,0.0,0.0,10
5,3,9664.17,9,9742.74,9744.26,6.99,C,mid,0.19,52,0.56,17,0.8,12,-999.0,-999,-999,99.0,3,1,2,0.0,0.0,0.0,0.0,0.0,0.0,1
5,3,9664.17,10,9751.59,9753.11,16.22,B,right,0.75,5,0.62,15,0.88,3,0.58,34,-999,2.0,2,3,1,0.0,-1.0,-3.0,0.0,3.0,-1.0,101
5,3,9664.17,11,9769.67,9771.18,13.88,C,left,0.75,6,0.65,14,0.73,5,0.63,13,-999,31.0,3,2,1,0.0,0.0,0.0,-1.0,-3.0,-1.0,110
5,3,9664.17,12,9785.41,9786.93,14.1,B,mid,0.75,5,0.68,14,0.85,3,0.55,34,-999,2.0,3,2,1,0.0,-1.0,3.0,-1.0,0.0,-1.0,111
5,3,9664.17,13,9801.37,9802.89,11.06,A,left,0.78,6,0.65,15,0.76,5,0.63,14,-999,32.0,1,2,3,3.0,0.0,0.0,0.0,-3.0,-1.0,1
5,3,9664.17,14,9814.29,9815.8,3.95,C,right,0.24,41,0.37,27,0.76,13,-999.0,-999,-999,99.0,1,2,3,0.0,0.0,0.0,0.0,0.0,0.0,0
5,3,9664.17,15,9820.1,9821.62,11.51,B,right,0.72,6,0.65,15,0.82,3,0.52,34,-999,1.0,2,3,1,-3.0,0.0,0.0,0.0,-3.0,-1.0,111
5,3,9664.17,16,9833.46,9834.98,10.72,C,mid,0.29,34,0.42,23,0.72,13,-999.0,-999,-999,99.0,1,3,2,0.0,0.0,0.0,0.0,0.0,0.0,11
5,3,9664.17,17,9846.04,9847.56,7.03,B,left,0.72,6,0.65,15,0.82,3,0.52,34,-999,2.0,2,1,3,-3.0,0.0,0.0,0.0,-3.0,-1.0,11
5,3,9664.17,18,9854.92,9856.44,10.29,A,left,0.78,6,0.68,15,0.82,4,0.52,35,-999,1.0,1,2,3,3.0,0.0,3.0,0.0,-3.0,0.0,110
5,3,9664.17,19,9867.07,9868.59,6.78,A,right,0.75,6,0.65,14,0.73,5,0.63,13,-999,31.0,3,1,2,0.0,0.0,0.0,-1.0,0.0,0.0,10
5,3,9664.17,20,9875.7,9877.22,8.17,A,mid,0.72,6,0.68,15,0.82,3,0.52,34,-999,1.0,2,1,3,-3.0,0.0,3.0,0.0,-3.0,-1.0,100
5,3,9664.17,21,9885.73,9887.25,5.31,B,mid,0.75,6,0.62,15,0.88,3,0.58,34,-999,1.0,1,2,3,0.0,0.0,-3.0,0.0,3.0,-1.0,11
5,3,9664.17,22,9892.89,9894.41,7.65,B,right,0.72,6,0.62,15,0.7,5,0.6,14,-999,32.0,1,3,2,-3.0,0.0,-3.0,0.0,3.0,-1.0,111
5,3,9664.17,23,9902.41,9903.92,4.83,C,left,0.16,62,0.46,21,0.87,11,-999.0,-999,-999,99.0,2,3,1,0.0,0.0,0.0,0.0,0.0,0.0,11
5,3,9664.17,24,9909.09,9910.6,6.12,C,left,0.27,37,0.47,21,0.86,11,-999.0,-999,-999,99.0,2,3,1,0.0,0.0,0.0,0.0,0.0,0.0,10
5,3,9664.17,25,9917.07,9918.59,4.98,A,right,0.78,6,0.62,14,0.76,5,0.6,13,-999,31.0,3,2,1,3.0,0.0,-3.0,-1.0,-3.0,0.0,101
5,3,9664.17,26,9923.9,9925.42,3.67,C,left,0.19,52,0.59,16,0.81,12,-999.0,-999,-999,99.0,3,2,1,0.0,0.0,0.0,0.0,0.0,0.0,111
5,3,9664.17,27,9929.43,9930.95,6.66,B,left,0.78,5,0.62,15,0.76,4,0.6,14,-999,32.0,3,1,2,3.0,-1.0,-3.0,0.0,-3.0,-1.0,10
5,3,9664.17,28,9937.95,9939.46,4.55,C,right,0.31,32,0.38,26,0.85,11,-999.0,-999,-999,99.0,2,1,3,0.0,0.0,0.0,0.0,0.0,0.0,110
5,3,9664.17,29,9944.36,9945.88,14.72,A,left,0.78,6,0.62,15,0.76,5,0.6,14,-999,32.0,1,3,2,3.0,0.0,-3.0,0.0,3.0,0.0,0
5,3,9664.17,30,9960.94,9962.45,13.54,C,left,0.28,35,0.67,14,0.78,12,-999.0,-999,-999,99.0,2,3,1,0.0,0.0,0.0,0.0,0.0,0.0,11
5,3,9664.17,31,9976.33,9977.85,6.59,B,mid,0.75,5,0.62,15,0.73,4,0.6,14,-999,32.0,1,2,3,0.0,-1.0,-3.0,0.0,-3.0,0.0,11
5,3,9664.17,32,9984.78,9986.3,9.1,B,left,0.72,5,0.62,15,0.7,4,0.6,14,-999,32.0,3,1,2,-3.0,-1.0,-3.0,0.0,-3.0,-1.0,110
5,3,9664.17,33,9995.73,9997.24,5.32,B,left,0.78,5,0.68,14,0.76,4,0.66,13,-999,32.0,3,1,2,3.0,-1.0,3.0,-1.0,3.0,-1.0,10
5,3,9664.17,34,10002.91,10004.42,6.91,C,mid,0.32,31,0.6,16,0.78,12,-999.0,-999,-999,99.0,1,3,2,0.0,0.0,0.0,0.0,0.0,0.0,1
5,3,9664.17,35,10011.67,10013.19,3.99,C,right,0.32,31,0.48,20,0.85,11,-999.0,-999,-999,99.0,2,1,3,0.0,0.0,0.0,0.0,0.0,0.0,11
5,3,9664.17,36,10017.52,10019.04,8.91,B,right,0.75,6,0.65,14,0.85,3,0.55,34,-999,2.0,1,3,2,0.0,0.0,0.0,-1.0,0.0,-1.0,110
5,3,9664.17,37,10028.28,10029.8,16.07,B,left,0.75,5,0.65,15,0.73,4,0.63,14,-999,31.0,2,1,3,0.0,-1.0,0.0,0.0,3.0,-1.0,100
5,3,9664.17,38,10191.4,10192.91,4.85,B,right,0.78,5,0.62,14,0.76,4,0.6,13,-999,32.0,2,3,1,3.0,-1.0,-3.0,-1.0,0.0,-1.0,10
5,3,9664.17,39,10198.11,10199.63,6.98,B,mid,0.72,6,0.68,14,0.7,5,0.66,13,-999,32.0,3,2,1,-3.0,0.0,3.0,-1.0,0.0,-1.0,1
5,3,9664.17,40,10206.96,10208.47,3.74,C,right,0.27,37,0.61,16,0.89,11,-999.0,-999,-999,99.0,2,1,3,0.0,0.0,0.0,0.0,0.0,0.0,10
5,3,9664.17,41,10212.56,10214.07,8.48,B,left,0.75,5,0.62,15,0.88,4,0.58,35,-999,1.0,3,1,2,0.0,-1.0,-3.0,0.0,3.0,0.0,100
5,3,9664.17,42,10222.9,10224.42,10.16,A,left,0.72,5,0.65,15,0.7,4,0.63,14,-999,31.0,1,2,3,-3.0,-1.0,0.0,0.0,3.0,-1.0,100
5,3,9664.17,43,10234.92,10236.43,8.76,B,right,0.72,6,0.62,15,0.7,5,0.6,14,-999,31.0,2,3,1,-3.0,0.0,-3.0,0.0,0.0,-1.0,0
5,3,9664.17,44,10245.53,10247.04,8.26,A,right,0.72,5,0.65,15,0.7,4,0.63,14,-999,31.0,3,2,1,-3.0,-1.0,0.0,0.0,3.0,-1.0,11
5,3,9664.17,45,10255.64,10257.16,11.69,B,right,0.72,6,0.68,15,0.82,4,0.52,35,-999,2.0,1,3,2,-3.0,0.0,3.0,0.0,-3.0,0.0,0
5,3,9664.17,46,10269.19,10270.7,7.34,B,left,0.72,5,0.65,15,0.88,3,0.58,34,-999,2.0,3,1,2,-3.0,-1.0,0.0,0.0,3.0,-1.0,110
5,3,9664.17,47,10278.38,10279.9,7.58,B,right,0.75,5,0.68,14,0.73,4,0.66,13,-999,32.0,1,3,2,0.0,-1.0,3.0,-1.0,0.0,0.0,100
5,3,9664.17,48,10287.81,10289.33,4.96,B,right,0.72,6,0.65,14,0.7,5,0.63,13,-999,32.0,1,3,2,-3.0,0.0,0.0,-1.0,3.0,0.0,111
5,3,9664.17,49,10294.63,10296.15,4.0,B,right,0.78,6,0.62,14,0.85,4,0.55,35,-999,2.0,2,3,1,3.0,0.0,-3.0,-1.0,0.0,0.0,111
5,3,9664.17,50,10300.49,10302.01,12.67,B,mid,0.75,6,0.65,15,0.82,3,0.52,34,-999,1.0,3,2,1,0.0,0.0,0.0,0.0,-3.0,-1.0,101
5,3,9664.17,51,10315.02,10316.54,7.36,B,mid,0.75,5,0.65,14,0.73,4,0.63,13,-999,32.0,3,2,1,0.0,-1.0,0.0,-1.0,3.0,0.0,1
5,3,9664.17,52,10324.24,10325.75,5.01,A,right,0.72,6,0.65,15,0.7,5,0.63,14,-999,31.0,3,1,2,-3.0,0.0,0.0,0.0,-3.0,-1.0,100
5,3,9664.17,53,10331.1,10332.62,8.29,B,left,0.78,5,0.68,15,0.76,4,0.66,14,-999,31.0,2,1,3,3.0,-1.0,3.0,0.0,0.0,0.0,0
5,3,9664.17,54,10341.25,10342.76,5.96,C,left,0.78,5,0.68,15,0.88,4,0.58,35,-999,1.0,2,3,1,3.0,-1.0,3.0,0.0,3.0,0.0,111
5,3,9664.17,55,10349.06,10350.58,4.52,B,mid,0.72,6,0.62,14,0.85,4,0.55,35,-999,2.0,3,2,1,-3.0,0.0,-3.0,-1.0,0.0,0.0,111
5,3,9664.17,56,10355.44,10356.96,5.63,A,mid,0.72,5,0.68,14,0.7,4,0.66,13,-999,31.0,2,1,3,-3.0,-1.0,3.0,-1.0,-3.0,0.0,101
5,3,9664.17,57,10362.94,10364.46,4.6,B,right,0.78,6,0.68,15,0.76,5,0.66,14,-999,31.0,2,3,1,3.0,0.0,3.0,0.0,0.0,0.0,101
5,3,9664.17,58,10369.4,10370.92,6.86,B,mid,0.72,6,0.68,15,0.82,3,0.52,34,-999,1.0,1,2,3,-3.0,0.0,3.0,0.0,-3.0,-1.0,111
5,3,9664.17,59,10378.12,10379.63,13.81,A,right,0.78,6,0.65,14,0.82,4,0.52,35,-999,1.0,3,1,2,3.0,0.0,0.0,-1.0,-3.0,0.0,100
5,3,9664.17,60,10393.8,10395.31,14.82,B,right,0.72,6,0.62,14,0.7,5,0.6,13,-999,32.0,1,3,2,-3.0,0.0,-3.0,-1.0,0.0,0.0,101
5,3,9664.17,61,10410.47,10411.99,16.51,A,left,0.75,6,0.65,15,0.73,5,0.63,14,-999,31.0,1,3,2,0.0,0.0,0.0,0.0,0.0,-1.0,100
5,3,9664.17,62,10428.85,10430.37,4.56,B,right,0.78,6,0.65,14,0.82,3,0.52,34,-999,2.0,2,3,1,3.0,0.0,0.0,-1.0,-3.0,-1.0,101
5,3,9664.17,63,10435.27,10436.78,4.51,B,right,0.75,6,0.62,14,0.88,4,0.58,35,-999,2.0,1,3,2,0.0,0.0,-3.0,-1.0,3.0,0.0,111
5,3,9664.17,64,10441.63,10443.15,17.84,A,mid,0.78,6,0.65,15,0.76,5,0.63,14,-999,32.0,2,3,1,3.0,0.0,0.0,0.0,0.0,0.0,10
5,3,9664.17,65,10461.32,10462.84,20.01,B,mid,0.78,6,0.68,15,0.88,3,0.58,34,-999,1.0,3,2,1,3.0,0.0,3.0,0.0,3.0,-1.0,0
5,3,9664.17,66,10483.18,10484.7,7.72,B,right,0.72,6,0.62,15,0.7,5,0.6,14,-999,32.0,2,3,1,-3.0,0.0,-3.0,0.0,0.0,0.0,111
5,3,9664.17,67,10492.76,10494.28,8.07,B,right,0.72,5,0.62,14,0.88,4,0.58,35,-999,2.0,2,3,1,-3.0,-1.0,-3.0,-1.0,3.0,0.0,10
5,3,9664.17,68,10502.69,10504.21,6.23,A,left,0.78,6,0.62,14,0.85,3,0.55,34,-999,1.0,1,3,2,3.0,0.0,-3.0,-1.0,0.0,-1.0,11
5,3,9664.17,69,10510.78,10512.29,6.12,B,right,0.72,5,0.68,15,0.88,4,0.58,35,-999,2.0,1,3,2,-3.0,-1.0,3.0,0.0,3.0,0.0,0
5,3,9664.17,70,10518.76,10520.27,16.87,B,left,0.78,5,0.65,15,0.76,4,0.63,14,-999,32.0,2,1,3,3.0,-1.0,0.0,0.0,-3.0,-1.0,110
5,3,9664.17,71,10537.48,10539.0,8.3,B,left,0.72,6,0.68,14,0.88,4,0.58,35,-999,2.0,2,1,3,-3.0,0.0,3.0,-1.0,3.0,0.0,111
5,3,9664.17,72,10547.65,10549.16,9.27,B,left,0.72,5,0.65,15,0.85,4,0.55,35,-999,2.0,2,1,3,-3.0,-1.0,0.0,0.0,0.0,0.0,111
5,3,9664.17,73,10558.78,10560.29,4.17,A,right,0.72,5,0.65,14,0.7,4,0.63,13,-999,31.0,3,1,2,-3.0,-1.0,0.0,-1.0,3.0,-1.0,0
5,3,9664.17,74,10564.81,10566.32,5.83,A,mid,0.75,6,0.65,15,0.73,5,0.63,14,-999,31.0,2,3,1,0.0,0.0,0.0,0.0,0.0,0.0,10
5,3,9664.17,75,10572.49,10574.0,9.38,B,mid,0.75,5,0.68,14,0.73,4,0.66,13,-999,31.0,3,2,1,0.0,-1.0,3.0,-1.0,0.0,-1.0,11
