subject,block,block_onset,trial,fixation_cross_onset,trial_onset,rt,choice,key,pA,mA,pB,mB,pCA,mCA,pCB,mCB,missing,condition,position_A,position_B,position_C,noise_Ap,noise_Am,noise_Bp,noise_Bm,noise_Cp,noise_Cm,attribute_positions
10,Practice,2914.48,P1,2914.52,2916.04,4.22,A,right,0.78,7,0.62,17,0.85,3,0.55,24,-999,2.0,3,1,2,3.0,-2.0,-3.0,2.0,0.0,-1.0,1
10,Practice,2914.48,P2,2920.6,2922.12,4.92,A,left,0.72,7,0.62,16,0.88,5,0.58,26,-999,2.0,1,2,3,-3.0,-2.0,-3.0,1.0,3.0,1.0,10
10,Practice,2914.48,P3,2927.38,2928.9,4.08,C,left,0.75,11,0.68,13,0.85,4,0.55,25,-999,1.0,2,3,1,0.0,2.0,3.0,-2.0,0.0,0.0,110
10,Practice,2914.48,P4,2933.32,2934.83,5.34,C,mid,0.75,9,0.65,15,0.88,5,0.58,26,-999,1.0,3,1,2,0.0,0.0,0.0,0.0,3.0,1.0,100
10,Practice,2914.48,P5,2940.51,2942.03,4.1,C,mid,0.72,11,0.62,13,0.85,6,0.55,27,-999,1.0,1,3,2,-3.0,2.0,-3.0,-2.0,0.0,2.0,101
10,Practice,2914.48,P6,2946.46,2947.98,5.81,B,right,0.78,7,0.62,13,0.82,6,0.52,27,-999,2.0,2,3,1,3.0,-2.0,-3.0,-2.0,-3.0,2.0,110
10,Practice,2914.48,P7,2954.13,2955.64,3.69,A,mid,0.75,7,0.65,17,0.85,5,0.55,26,-999,2.0,2,1,3,0.0,-2.0,0.0,2.0,0.0,1.0,111
10,Practice,2914.48,P8,2959.66,2961.17,11.85,A,right,0.72,8,0.68,15,0.82,6,0.52,27,-999,2.0,3,1,2,-3.0,-1.0,3.0,0.0,-3.0,2.0,110
10,Practice,2914.48,P9,2973.35,2974.87,1.63,C,mid,0.78,8,0.62,16,0.88,5,0.58,26,-999,1.0,3,1,2,3.0,-1.0,-3.0,1.0,3.0,1.0,1
10,Practice,2914.48,P10,2976.84,2978.35,3.22,A,left,0.75,10,0.65,16,0.82,2,0.52,23,-999,2.0,1,2,3,0.0,1.0,0.0,1.0,-3.0,-2.0,101
10,Practice,2914.48,P11,2981.9,2983.42,2.31,A,mid,0.72,8,0.65,15,0.85,5,0.55,26,-999,2.0,2,3,1,-3.0,-1.0,0.0,0.0,0.0,1.0,0
10,Practice,2914.48,P12,2986.07,2987.58,1.59,A,mid,0.72,8,0.68,15,0.85,5,0.55,26,-999,1.0,2,3,1,-3.0,-1.0,3.0,0.0,0.0,1.0,101
10,Practice,2914.48,P13,2989.5,2991.01,3.12,A,mid,0.78,11,0.68,16,0.88,5,0.58,26,-999,1.0,2,1,3,3.0,2.0,3.0,1.0,3.0,1.0,111
10,Practice,2914.48,P14,2994.48,2996.0,4.43,B,mid,0.72,11,0.62,17,0.82,3,0.52,24,-999,2.0,3,2,1,-3.0,2.0,-3.0,2.0,-3.0,-1.0,0
10,Practice,2914.48,P15,3000.76,3002.28,5.71,A,mid,0.78,7,0.68,14,0.88,5,0.58,26,-999,2.0,2,3,1,3.0,-2.0,3.0,-1.0,3.0,1.0,10
10,Practice,2914.48,P16,3008.33,3009.84,2.16,A,mid,0.78,7,0.65,13,0.82,2,0.52,23,-999,2.0,2,1,3,3.0,-2.0,0.0,-2.0,-3.0,-2.0,1
10,Practice,2914.48,P17,3012.34,3013.86,2.7,A,right,0.72,10,0.65,13,0.82,5,0.52,26,-999,2.0,3,2,1,-3.0,1.0,0.0,-2.0,-3.0,1.0,110
10,Practice,2914.48,P18,3016.89,3018.41,2.87,A,right,0.78,7,0.68,13,0.88,2,0.58,23,-999,2.0,3,1,2,3.0,-2.0,3.0,-2.0,3.0,-2.0,10
10,Practice,2914.48,P19,3021.6,3023.12,2.33,C,mid,0.78,11,0.62,15,0.85,4,0.55,25,-999,1.0,3,1,2,3.0,2.0,-3.0,0.0,0.0,0.0,110
10,Practice,2914.48,P20,3025.79,3027.3,3.98,B,right,0.72,7,0.65,14,0.88,4,0.58,25,-999,1.0,1,3,2,-3.0,-2.0,0.0,-1.0,3.0,0.0,11
10,Practice,2914.48,P21,3031.62,3033.13,5.5,A,right,0.78,9,0.65,16,0.85,2,0.55,23,-999,1.0,3,1,2,3.0,0.0,0.0,1.0,0.0,-2.0,0
10,Practice,2914.48,P22,3038.98,3040.5,4.68,B,right,0.72,9,0.62,15,0.85,2,0.55,23,-999,1.0,1,3,2,-3.0,0.0,-3.0,0.0,0.0,-2.0,10
10,Practice,2914.48,P23,3045.51,3047.03,1.17,C,mid,0.72,7,0.65,13,0.88,3,0.58,24,-999,1.0,3,1,2,-3.0,-2.0,0.0,-2.0,3.0,-1.0,100
10,Practice,2914.48,P24,3048.53,3050.05,3.17,B,left,0.78,7,0.65,13,0.82,5,0.52,26,-999,2.0,2,1,3,3.0,-2.0,0.0,-2.0,-3.0,1.0,10
10,Practice,2914.48,P25,3053.54,3055.06,2.91,A,mid,0.78,10,0.68,13,0.85,4,0.55,25,-999,1.0,2,3,1,3.0,1.0,3.0,-2.0,0.0,0.0,111
10,Estimation1,3203.37,E1,3203.43,3204.95,2.58,A,mid,0.75,11,0.65,15,0.85,-999,0.55,20,3,,2,1,3,,,,,,,11
10,Estimation1,3203.37,E2,3207.91,3209.43,3.03,B,right,0.75,8,0.65,15,0.85,-999,0.55,20,1,2.0,1,3,2,,,,,,,101
10,Estimation1,3203.37,E3,3212.79,3214.31,1.69,A,right,0.75,8,0.65,15,0.85,-999,0.55,28,3,,3,1,2,,,,,,,100
10,Estimation1,3203.37,E4,3216.34,3217.86,3.91,C,left,0.75,6,0.65,15,0.85,-999,0.55,28,1,2.0,2,3,1,,,,,,,101
10,Estimation1,3203.37,E5,3222.11,3223.62,3.53,A,left,0.75,6,0.65,15,0.85,-999,0.55,24,3,,1,2,3,,,,,,,1
10,Estimation1,3203.37,E6,3227.49,3229.0,4.08,C,right,0.75,5,0.65,15,0.85,-999,0.55,24,1,2.0,2,1,3,,,,,,,101
10,Estimation1,3203.37,E7,3233.42,3234.94,2.97,A,left,0.75,5,0.65,15,0.85,-999,0.55,22,3,,1,2,3,,,,,,,100
10,Estimation1,3203.37,E8,3238.25,3239.77,3.97,C,left,0.75,5,0.65,15,0.85,3,0.55,22,1,2.0,2,3,1,,,,,,,100
10,Estimation1,3203.37,E9,3244.08,3245.6,2.3,C,left,0.75,5,0.65,15,0.85,3,0.55,21,2,1.0,3,2,1,,,,,,,100
10,Estimation1,3203.37,E10,3248.23,3249.75,3.46,B,right,0.75,5,0.65,15,0.85,3,0.55,21,1,2.0,1,3,2,,,,,,,0
10,Estimation1,3203.37,E11,3253.55,3255.06,2.81,C,right,0.75,5,0.65,15,0.85,3,0.55,22,2,1.0,1,2,3,,,,,,,101
10,Estimation1,3203.37,E12,3258.21,3259.73,2.24,C,right,0.75,5,0.65,15,0.85,3,0.55,22,1,2.0,2,1,3,,,,,,,110
10,1,3266.34,1,3266.41,3267.93,3.28,C,left,0.19,52,0.59,16,0.81,12,-999.0,-999,-999,99.0,3,2,1,0.0,0.0,0.0,0.0,0.0,0.0,101
10,1,3266.34,2,3271.54,3273.06,4.91,B,right,0.72,4,0.68,15,0.88,3,0.58,22,-999,2.0,1,3,2,-3.0,-1.0,3.0,0.0,3.0,0.0,0
10,1,3266.34,3,3278.31,3279.82,4.88,A,left,0.78,5,0.65,15,0.76,4,0.63,14,-999,32.0,1,3,2,3.0,0.0,0.0,0.0,-3.0,-1.0,0
10,1,3266.34,4,3285.04,3286.55,4.08,B,left,0.75,5,0.65,15,0.73,4,0.63,14,-999,31.0,2,1,3,0.0,0.0,0.0,0.0,0.0,-1.0,111
10,1,3266.34,5,3290.97,3292.48,5.61,A,left,0.75,5,0.62,14,0.88,3,0.58,22,-999,2.0,1,3,2,0.0,0.0,-3.0,-1.0,3.0,0.0,110
10,1,3266.34,6,3298.43,3299.95,4.81,B,right,0.75,5,0.65,14,0.73,4,0.63,13,-999,31.0,1,3,2,0.0,0.0,0.0,-1.0,0.0,0.0,111
10,1,3266.34,7,3305.1,3306.61,3.03,B,mid,0.72,5,0.68,14,0.7,4,0.66,13,-999,32.0,3,2,1,-3.0,0.0,3.0,-1.0,0.0,-1.0,111
10,1,3266.34,8,3309.98,3311.49,5.74,B,right,0.78,4,0.62,15,0.85,2,0.55,21,-999,1.0,1,3,2,3.0,-1.0,-3.0,0.0,0.0,-1.0,101
10,1,3266.34,9,3317.58,3319.09,4.87,B,mid,0.75,5,0.65,15,0.85,3,0.55,22,-999,1.0,1,2,3,0.0,0.0,0.0,0.0,0.0,0.0,101
10,1,3266.34,10,3324.31,3325.82,1.55,B,mid,0.75,5,0.65,15,0.73,4,0.63,14,-999,31.0,3,2,1,0.0,0.0,0.0,0.0,0.0,0.0,1
10,1,3266.34,11,3327.72,3329.24,2.73,C,mid,0.24,41,0.37,27,0.76,13,-999.0,-999,-999,99.0,1,3,2,0.0,0.0,0.0,0.0,0.0,0.0,100
10,1,3266.34,12,3332.3,3333.82,2.37,C,left,0.19,52,0.56,17,0.8,12,-999.0,-999,-999,99.0,2,3,1,0.0,0.0,0.0,0.0,0.0,0.0,101
10,1,3266.34,13,3336.54,3338.05,3.59,B,mid,0.75,5,0.62,15,0.88,2,0.58,21,-999,1.0,3,2,1,0.0,0.0,-3.0,0.0,3.0,-1.0,111
10,1,3266.34,14,3341.98,3343.5,2.06,B,right,0.78,4,0.68,14,0.76,3,0.66,13,-999,32.0,1,3,2,3.0,-1.0,3.0,-1.0,3.0,-1.0,101
10,1,3266.34,15,3345.9,3347.42,2.63,C,mid,0.78,4,0.68,15,0.88,3,0.58,22,-999,1.0,3,1,2,3.0,-1.0,3.0,0.0,3.0,0.0,0
10,1,3266.34,16,3350.38,3351.9,3.37,A,right,0.72,4,0.65,15,0.85,3,0.55,22,-999,2.0,3,1,2,-3.0,-1.0,0.0,0.0,0.0,0.0,0
10,1,3266.34,17,3355.6,3357.11,3.94,B,left,0.72,5,0.65,15,0.82,2,0.52,21,-999,2.0,3,1,2,-3.0,0.0,0.0,0.0,-3.0,-1.0,111
10,1,3266.34,18,3361.4,3362.91,3.0,C,mid,0.32,31,0.48,20,0.85,11,-999.0,-999,-999,99.0,3,1,2,0.0,0.0,0.0,0.0,0.0,0.0,10
10,1,3266.34,19,3366.24,3367.76,5.03,A,right,0.72,5,0.68,15,0.82,2,0.52,21,-999,1.0,3,2,1,-3.0,0.0,3.0,0.0,-3.0,-1.0,110
10,1,3266.34,20,3373.12,3374.64,3.77,B,left,0.72,4,0.65,14,0.7,3,0.63,13,-999,31.0,2,1,3,-3.0,-1.0,0.0,-1.0,3.0,-1.0,0
10,1,3266.34,21,3378.74,3380.26,6.99,A,mid,0.75,5,0.65,15,0.82,2,0.52,21,-999,1.0,2,1,3,0.0,0.0,0.0,0.0,-3.0,-1.0,11
10,1,3266.34,22,3387.59,3389.1,3.04,A,mid,0.72,5,0.62,14,0.85,3,0.55,22,-999,2.0,2,1,3,-3.0,0.0,-3.0,-1.0,0.0,0.0,101
10,1,3266.34,23,3392.49,3394.0,3.14,B,left,0.75,4,0.68,15,0.88,3,0.58,22,-999,1.0,2,1,3,0.0,-1.0,3.0,0.0,3.0,0.0,1
10,1,3266.34,24,3397.48,3399.0,3.27,B,right,0.78,5,0.68,15,0.82,3,0.52,22,-999,1.0,2,3,1,3.0,0.0,3.0,0.0,-3.0,0.0,11
10,1,3266.34,25,3402.62,3404.13,4.25,A,left,0.75,4,0.65,14,0.73,3,0.63,13,-999,32.0,1,2,3,0.0,-1.0,0.0,-1.0,3.0,0.0,100
10,1,3266.34,26,3408.71,3410.23,5.39,B,right,0.78,4,0.68,15,0.76,3,0.66,14,-999,31.0,1,3,2,3.0,-1.0,3.0,0.0,0.0,0.0,11
10,1,3266.34,27,3415.98,3417.49,9.85,C,right,0.72,5,0.62,15,0.7,4,0.6,14,-999,31.0,1,2,3,-3.0,0.0,-3.0,0.0,0.0,-1.0,101
10,1,3266.34,28,3427.69,3429.21,3.09,A,left,0.75,5,0.65,14,0.73,4,0.63,13,-999,31.0,1,2,3,0.0,0.0,0.0,-1.0,-3.0,-1.0,111
10,1,3266.34,29,3432.64,3434.16,3.04,C,right,0.75,4,0.62,15,0.88,3,0.58,22,-999,1.0,2,1,3,0.0,-1.0,-3.0,0.0,3.0,0.0,101
10,1,3266.34,30,3437.54,3439.05,2.93,A,mid,0.72,5,0.62,14,0.85,3,0.55,22,-999,2.0,2,3,1,-3.0,0.0,-3.0,-1.0,0.0,0.0,100
10,1,3266.34,31,3442.32,3443.84,5.48,B,left,0.78,4,0.68,15,0.85,2,0.55,21,-999,1.0,2,1,3,3.0,-1.0,3.0,0.0,0.0,-1.0,0
10,1,3266.34,32,3449.65,3451.17,3.45,A,mid,0.78,5,0.62,14,0.85,2,0.55,21,-999,1.0,2,3,1,3.0,0.0,-3.0,-1.0,0.0,-1.0,110
10,1,3266.34,33,3454.95,3456.46,4.72,C,right,0.78,5,0.62,14,0.85,3,0.55,22,-999,2.0,1,2,3,3.0,0.0,-3.0,-1.0,0.0,0.0,10
10,1,3266.34,34,3461.53,3463.05,5.14,A,left,0.75,4,0.62,15,0.73,3,0.6,14,-999,32.0,1,3,2,0.0,-1.0,-3.0,0.0,-3.0,0.0,100
10,1,3266.34,35,3468.53,3470.04,3.29,B,left,0.75,4,0.68,14,0.85,2,0.55,21,-999,2.0,3,1,2,0.0,-1.0,3.0,-1.0,0.0,-1.0,110
10,1,3266.34,36,3473.68,3475.19,6.47,A,mid,0.75,4,0.68,14,0.73,3,0.66,13,-999,31.0,2,3,1,0.0,-1.0,3.0,-1.0,0.0,-1.0,0
10,1,3266.34,37,3481.99,3483.51,4.41,B,left,0.32,31,0.6,16,0.78,12,-999.0,-999,-999,99.0,2,1,3,0.0,0.0,0.0,0.0,0.0,0.0,111
10,1,3266.34,38,3515.8,3517.31,2.43,B,mid,0.75,4,0.68,14,0.73,3,0.66,13,-999,32.0,1,2,3,0.0,-1.0,3.0,-1.0,0.0,0.0,100
10,1,3266.34,39,3520.08,3521.59,2.03,A,left,0.78,4,0.62,15,0.76,3,0.6,14,-999,32.0,1,2,3,3.0,-1.0,-3.0,0.0,-3.0,-1.0,110
10,1,3266.34,40,3523.96,3525.48,3.12,A,left,0.75,5,0.65,14,0.85,2,0.55,21,-999,2.0,1,2,3,0.0,0.0,0.0,-1.0,0.0,-1.0,11
10,1,3266.34,41,3528.94,3530.46,5.45,B,left,0.72,4,0.62,14,0.88,3,0.58,22,-999,2.0,3,1,2,-3.0,-1.0,-3.0,-1.0,3.0,0.0,110
10,1,3266.34,42,3536.26,3537.77,3.84,B,left,0.78,5,0.65,14,0.82,2,0.52,21,-999,2.0,2,1,3,3.0,0.0,0.0,-1.0,-3.0,-1.0,110
10,1,3266.34,43,3541.95,3543.47,3.46,C,mid,0.27,37,0.47,21,0.86,11,-999.0,-999,-999,99.0,1,3,2,0.0,0.0,0.0,0.0,0.0,0.0,1
10,1,3266.34,44,3547.27,3548.78,4.08,A,left,0.72,5,0.68,15,0.82,3,0.52,22,-999,2.0,1,2,3,-3.0,0.0,3.0,0.0,-3.0,0.0,110
10,1,3266.34,45,3553.2,3554.72,6.31,A,right,0.72,5,0.68,15,0.82,2,0.52,21,-999,1.0,3,1,2,-3.0,0.0,3.0,0.0,-3.0,-1.0,10
10,1,3266.34,46,3561.36,3562.88,1.42,C,left,0.72,5,0.65,15,0.82,2,0.52,21,-999,1.0,3,2,1,-3.0,0.0,0.0,0.0,-3.0,-1.0,1
10,1,3266.34,47,3564.63,3566.15,6.49,B,left,0.72,4,0.62,15,0.7,3,0.6,14,-999,32.0,2,1,3,-3.0,-1.0,-3.0,0.0,-3.0,-1.0,10
10,1,3266.34,48,3572.98,3574.49,1.92,C,left,0.28,35,0.67,14,0.78,12,-999.0,-999,-999,99.0,2,3,1,0.0,0.0,0.0,0.0,0.0,0.0,11
10,1,3266.34,49,3576.76,3578.28,2.16,B,mid,0.72,4,0.65,15,0.7,3,0.63,14,-999,31.0,1,2,3,-3.0,-1.0,0.0,0.0,3.0,-1.0,10
10,1,3266.34,50,3580.77,3582.29,2.2,A,left,0.72,5,0.62,15,0.7,4,0.6,14,-999,32.0,1,2,3,-3.0,0.0,-3.0,0.0,0.0,0.0,11
10,1,3266.34,51,3584.84,3586.36,1.88,A,right,0.78,5,0.62,14,0.76,4,0.6,13,-999,31.0,3,2,1,3.0,0.0,-3.0,-1.0,-3.0,0.0,0
10,1,3266.34,52,3588.57,3590.09,4.4,B,left,0.75,4,0.65,15,0.73,3,0.63,14,-999,31.0,2,1,3,0.0,-1.0,0.0,0.0,3.0,-1.0,1
10,1,3266.34,53,3594.82,3596.34,2.18,A,mid,0.78,4,0.65,15,0.76,3,0.63,14,-999,32.0,2,1,3,3.0,-1.0,0.0,0.0,-3.0,-1.0,10
10,1,3266.34,54,3598.85,3600.37,2.4,A,left,0.78,5,0.65,14,0.82,3,0.52,22,-999,1.0,1,2,3,3.0,0.0,0.0,-1.0,-3.0,0.0,0
10,1,3266.34,55,3603.1,3604.62,2.61,A,mid,0.72,5,0.62,14,0.7,4,0.6,13,-999,32.0,2,1,3,-3.0,0.0,-3.0,-1.0,0.0,0.0,100
10,1,3266.34,56,3607.57,3609.08,2.88,B,mid,0.72,4,0.68,14,0.7,3,0.66,13,-999,31.0,1,2,3,-3.0,-1.0,3.0,-1.0,-3.0,0.0,0
10,1,3266.34,57,3612.3,3613.81,2.34,A,mid,0.72,5,0.68,14,0.88,3,0.58,22,-999,2.0,2,3,1,-3.0,0.0,3.0,-1.0,3.0,0.0,10
10,1,3266.34,58,3616.5,3618.01,6.1,B,mid,0.78,4,0.62,14,0.76,3,0.6,13,-999,32.0,1,2,3,3.0,-1.0,-3.0,-1.0,0.0,-1.0,101
10,1,3266.34,59,3624.44,3625.96,2.0,A,left,0.72,5,0.65,14,0.7,4,0.63,13,-999,32.0,1,3,2,-3.0,0.0,0.0,-1.0,3.0,0.0,111
10,1,3266.34,60,3628.29,3629.81,3.94,A,mid,0.72,4,0.65,15,0.7,3,0.63,14,-999,31.0,2,1,3,-3.0,-1.0,0.0,0.0,3.0,-1.0,100
10,1,3266.34,61,3634.09,3635.61,6.35,A,right,0.72,4,0.65,15,0.88,2,0.58,21,-999,2.0,3,1,2,-3.0,-1.0,0.0,0.0,3.0,-1.0,110
10,1,3266.34,62,3642.3,3643.82,3.45,C,left,0.29,34,0.42,23,0.72,13,-999.0,-999,-999,99.0,3,2,1,0.0,0.0,0.0,0.0,0.0,0.0,1
10,1,3266.34,63,3647.62,3649.14,4.45,C,mid,0.31,32,0.38,26,0.85,11,-999.0,-999,-999,99.0,3,1,2,0.0,0.0,0.0,0.0,0.0,0.0,111
10,1,3266.34,64,3653.92,3655.43,2.77,A,right,0.78,4,0.62,15,0.76,3,0.6,14,-999,31.0,3,2,1,3.0,-1.0,-3.0,0.0,0.0,0.0,0
10,1,3266.34,65,3658.55,3660.07,3.32,C,right,0.16,62,0.46,21,0.87,11,-999.0,-999,-999,99.0,1,2,3,0.0,0.0,0.0,0.0,0.0,0.0,0
10,1,3266.34,66,3663.71,3665.23,3.25,A,mid,0.72,5,0.62,15,0.7,4,0.6,14,-999,32.0,2,3,1,-3.0,0.0,-3.0,0.0,3.0,-1.0,110
10,1,3266.34,67,3668.81,3670.33,2.84,A,mid,0.78,5,0.62,15,0.76,4,0.6,14,-999,32.0,2,1,3,3.0,0.0,-3.0,0.0,3.0,0.0,101
10,1,3266.34,68,3673.51,3675.03,4.76,A,mid,0.78,5,0.65,15,0.76,4,0.63,14,-999,32.0,2,1,3,3.0,0.0,0.0,0.0,0.0,0.0,111
10,1,3266.34,69,3680.13,3681.64,3.1,A,left,0.78,5,0.68,15,0.88,2,0.58,21,-999,1.0,1,3,2,3.0,0.0,3.0,0.0,3.0,-1.0,10
10,1,3266.34,70,3685.07,3686.59,6.6,A,left,0.78,5,0.68,15,0.76,4,0.66,14,-999,31.0,1,2,3,3.0,0.0,3.0,0.0,0.0,0.0,111
10,1,3266.34,71,3693.52,3695.04,3.07,A,right,0.75,4,0.62,15,0.88,2,0.58,21,-999,2.0,3,1,2,0.0,-1.0,-3.0,0.0,3.0,-1.0,111
10,1,3266.34,72,3698.45,3699.97,1.7,A,right,0.72,4,0.68,14,0.85,3,0.55,22,-999,2.0,3,2,1,-3.0,-1.0,3.0,-1.0,0.0,0.0,100
10,1,3266.34,73,3702.0,3703.52,1.74,C,mid,0.27,37,0.61,16,0.89,11,-999.0,-999,-999,99.0,3,1,2,0.0,0.0,0.0,0.0,0.0,0.0,0
10,1,3266.34,74,3705.6,3707.12,3.1,A,left,0.78,5,0.65,14,0.82,2,0.52,21,-999,1.0,1,3,2,3.0,0.0,0.0,-1.0,-3.0,-1.0,110
10,1,3266.34,75,3710.57,3712.08,7.64,A,right,0.72,5,0.65,15,0.7,4,0.63,14,-999,31.0,3,1,2,-3.0,0.0,0.0,0.0,-3.0,-1.0,110
10,Estimation2,3781.46,E1,3781.51,3783.03,3.41,A,mid,0.75,11,0.65,15,0.85,-999,0.55,20,3,,2,1,3,,,,,,,110
10,Estimation2,3781.46,E2,3786.78,3788.29,1.57,B,mid,0.75,8,0.65,15,0.85,-999,0.55,20,1,2.0,3,2,1,,,,,,,110
10,Estimation2,3781.46,E3,3790.21,3791.72,1.52,A,right,0.75,8,0.65,15,0.85,-999,0.55,28,3,,3,2,1,,,,,,,100
10,Estimation2,3781.46,E4,3793.59,3795.11,1.99,B,left,0.75,6,0.65,15,0.85,-999,0.55,28,1,2.0,2,1,3,,,,,,,110
10,Estimation2,3781.46,E5,3797.44,3798.95,1.59,A,left,0.75,6,0.65,15,0.85,-999,0.55,32,3,,1,2,3,,,,,,,0
10,Estimation2,3781.46,E6,3800.89,3802.4,1.67,B,left,0.75,5,0.65,15,0.85,-999,0.55,32,1,2.0,3,1,2,,,,,,,1
10,Estimation2,3781.46,E7,3804.4,3805.92,1.28,A,left,0.75,5,0.65,15,0.85,-999,0.55,34,3,,1,3,2,,,,,,,1
10,Estimation2,3781.46,E8,3807.54,3809.05,2.83,B,right,0.75,5,0.65,15,0.85,3,0.55,34,1,2.0,1,3,2,,,,,,,0
10,Estimation2,3781.46,E9,3812.22,3813.73,2.32,A,left,0.75,5,0.65,15,0.85,3,0.55,35,2,1.0,1,2,3,,,,,,,0
10,Estimation2,3781.46,E10,3816.4,3817.92,5.06,B,left,0.75,5,0.65,15,0.85,3,0.55,35,1,2.0,3,1,2,,,,,,,101
10,2,3826.73,1,3826.8,3828.31,2.85,C,right,0.28,35,0.67,14,0.78,12,-999.0,-999,-999,99.0,1,2,3,0.0,0.0,0.0,0.0,0.0,0.0,111
10,2,3826.73,2,3831.49,3833.01,1.47,A,right,0.72,5,0.62,14,0.7,4,0.6,13,-999,32.0,3,2,1,-3.0,0.0,-3.0,-1.0,0.0,0.0,111
10,2,3826.73,3,3834.81,3836.33,2.86,A,right,0.78,4,0.68,14,0.76,3,0.66,13,-999,32.0,3,2,1,3.0,-1.0,3.0,-1.0,3.0,-1.0,110
10,2,3826.73,4,3839.52,3841.04,3.13,A,mid,0.72,5,0.68,15,0.82,2,0.52,34,-999,1.0,2,3,1,-3.0,0.0,3.0,0.0,-3.0,-1.0,110
10,2,3826.73,5,3844.51,3846.02,4.2,A,right,0.72,5,0.62,14,0.85,3,0.55,35,-999,2.0,3,1,2,-3.0,0.0,-3.0,-1.0,0.0,0.0,11
10,2,3826.73,6,3850.55,3852.07,4.29,A,left,0.72,4,0.62,14,0.88,3,0.58,35,-999,2.0,1,2,3,-3.0,-1.0,-3.0,-1.0,3.0,0.0,101
10,2,3826.73,7,3856.7,3858.22,4.82,A,left,0.72,4,0.62,15,0.7,3,0.6,14,-999,32.0,1,3,2,-3.0,-1.0,-3.0,0.0,-3.0,-1.0,111
10,2,3826.73,8,3863.37,3864.88,3.47,C,right,0.24,41,0.37,27,0.76,13,-999.0,-999,-999,99.0,2,1,3,0.0,0.0,0.0,0.0,0.0,0.0,11
10,2,3826.73,9,3868.68,3870.2,1.93,A,mid,0.72,5,0.65,15,0.82,2,0.52,34,-999,2.0,2,1,3,-3.0,0.0,0.0,0.0,-3.0,-1.0,100
10,2,3826.73,10,3872.46,3873.98,1.72,A,right,0.75,4,0.68,14,0.73,3,0.66,13,-999,31.0,3,2,1,0.0,-1.0,3.0,-1.0,0.0,-1.0,0
10,2,3826.73,11,3876.05,3877.56,3.14,C,left,0.32,31,0.48,20,0.85,11,-999.0,-999,-999,99.0,2,3,1,0.0,0.0,0.0,0.0,0.0,0.0,111
10,2,3826.73,12,3881.04,3882.56,2.56,A,right,0.72,4,0.65,14,0.7,3,0.63,13,-999,31.0,3,2,1,-3.0,-1.0,0.0,-1.0,3.0,-1.0,0
10,2,3826.73,13,3885.46,3886.98,2.5,C,right,0.72,4,0.65,15,0.7,3,0.63,14,-999,31.0,2,1,3,-3.0,-1.0,0.0,0.0,3.0,-1.0,1
10,2,3826.73,14,3889.81,3891.32,1.76,A,right,0.75,4,0.62,15,0.73,3,0.6,14,-999,32.0,3,2,1,0.0,-1.0,-3.0,0.0,-3.0,0.0,10
10,2,3826.73,15,3893.42,3894.94,1.38,C,mid,0.19,52,0.59,16,0.81,12,-999.0,-999,-999,99.0,3,1,2,0.0,0.0,0.0,0.0,0.0,0.0,110
10,2,3826.73,16,3896.66,3898.17,5.11,B,left,0.78,5,0.65,15,0.76,4,0.63,14,-999,32.0,3,1,2,3.0,0.0,0.0,0.0,0.0,0.0,0
10,2,3826.73,17,3903.62,3905.14,5.35,C,right,0.32,31,0.6,16,0.78,12,-999.0,-999,-999,99.0,2,1,3,0.0,0.0,0.0,0.0,0.0,0.0,110
10,2,3826.73,18,3910.84,3912.35,3.31,C,mid,0.27,37,0.61,16,0.89,11,-999.0,-999,-999,99.0,3,1,2,0.0,0.0,0.0,0.0,0.0,0.0,110
10,2,3826.73,19,3916.0,3917.52,4.01,A,left,0.75,4,0.68,14,0.85,2,0.55,34,-999,2.0,1,3,2,0.0,-1.0,3.0,-1.0,0.0,-1.0,0
10,2,3826.73,20,3921.87,3923.38,3.81,A,right,0.75,4,0.65,15,0.73,3,0.63,14,-999,31.0,3,2,1,0.0,-1.0,0.0,0.0,3.0,-1.0,1
10,2,3826.73,21,3927.53,3929.05,7.71,B,right,0.75,5,0.62,14,0.88,3,0.58,35,-999,2.0,2,3,1,0.0,0.0,-3.0,-1.0,3.0,0.0,11
10,2,3826.73,22,3937.09,3938.61,2.73,A,left,0.78,5,0.68,15,0.82,3,0.52,35,-999,1.0,1,3,2,3.0,0.0,3.0,0.0,-3.0,0.0,10
10,2,3826.73,23,3941.68,3943.19,4.44,A,right,0.72,4,0.68,15,0.88,3,0.58,35,-999,2.0,3,2,1,-3.0,-1.0,3.0,0.0,3.0,0.0,10
10,2,3826.73,24,3947.97,3949.49,1.88,A,right,0.78,5,0.62,14,0.85,2,0.55,34,-999,1.0,3,1,2,3.0,0.0,-3.0,-1.0,0.0,-1.0,11
10,2,3826.73,25,3951.71,3953.22,5.93,A,mid,0.72,4,0.68,14,0.85,3,0.55,35,-999,2.0,2,3,1,-3.0,-1.0,3.0,-1.0,0.0,0.0,101
10,2,3826.73,26,3959.49,3961.0,3.9,A,right,0.75,5,0.65,15,0.73,4,0.63,14,-999,31.0,3,2,1,0.0,0.0,0.0,0.0,0.0,0.0,10
10,2,3826.73,27,3965.25,3966.77,3.88,A,right,0.72,5,0.65,14,0.7,4,0.63,13,-999,32.0,3,2,1,-3.0,0.0,0.0,-1.0,3.0,0.0,111
10,2,3826.73,28,3970.98,3972.5,2.94,A,right,0.75,5,0.65,14,0.73,4,0.63,13,-999,31.0,3,1,2,0.0,0.0,0.0,-1.0,-3.0,-1.0,10
10,2,3826.73,29,3975.76,3977.28,3.16,A,mid,0.78,5,0.62,14,0.85,3,0.55,35,-999,2.0,2,3,1,3.0,0.0,-3.0,-1.0,0.0,0.0,100
10,2,3826.73,30,3980.78,3982.3,3.15,A,left,0.78,5,0.65,15,0.76,4,0.63,14,-999,32.0,1,2,3,3.0,0.0,0.0,0.0,-3.0,-1.0,11
10,2,3826.73,31,3985.78,3987.29,2.83,A,mid,0.75,5,0.65,15,0.82,2,0.52,34,-999,1.0,2,3,1,0.0,0.0,0.0,0.0,-3.0,-1.0,1
10,2,3826.73,32,3990.46,3991.98,4.79,C,mid,0.75,4,0.68,15,0.88,3,0.58,35,-999,1.0,1,3,2,0.0,-1.0,3.0,0.0,3.0,0.0,0
10,2,3826.73,33,3997.11,3998.62,2.24,A,right,0.72,5,0.65,15,0.82,2,0.52,34,-999,1.0,3,1,2,-3.0,0.0,0.0,0.0,-3.0,-1.0,100
10,2,3826.73,34,4001.19,4002.71,4.58,A,left,0.72,5,0.62,14,0.85,3,0.55,35,-999,2.0,1,2,3,-3.0,0.0,-3.0,-1.0,0.0,0.0,0
10,2,3826.73,35,4007.62,4009.14,4.71,A,mid,0.75,4,0.68,14,0.73,3,0.66,13,-999,32.0,2,1,3,0.0,-1.0,3.0,-1.0,0.0,0.0,10
10,2,3826.73,36,4014.19,4015.7,2.66,A,left,0.72,4,0.65,15,0.85,3,0.55,35,-999,2.0,1,3,2,-3.0,-1.0,0.0,0.0,0.0,0.0,111
10,2,3826.73,37,4018.7,4020.22,2.59,C,right,0.31,32,0.38,26,0.85,11,-999.0,-999,-999,99.0,1,2,3,0.0,0.0,0.0,0.0,0.0,0.0,10
10,2,3826.73,38,4068.93,4070.45,2.92,A,right,0.72,5,0.62,15,0.7,4,0.6,14,-999,32.0,3,2,1,-3.0,0.0,-3.0,0.0,3.0,-1.0,100
10,2,3826.73,39,4073.7,4075.22,2.41,A,left,0.75,5,0.65,15,0.73,4,0.63,14,-999,31.0,1,2,3,0.0,0.0,0.0,0.0,0.0,-1.0,101
10,2,3826.73,40,4077.96,4079.48,3.7,A,left,0.72,4,0.65,15,0.7,3,0.63,14,-999,31.0,1,3,2,-3.0,-1.0,0.0,0.0,3.0,-1.0,11
10,2,3826.73,41,4083.51,4085.03,3.01,B,right,0.75,4,0.65,14,0.73,3,0.63,13,-999,32.0,1,3,2,0.0,-1.0,0.0,-1.0,3.0,0.0,11
10,2,3826.73,42,4088.38,4089.89,5.49,A,right,0.72,5,0.68,14,0.88,3,0.58,35,-999,2.0,3,1,2,-3.0,0.0,3.0,-1.0,3.0,0.0,111
10,2,3826.73,43,4095.73,4097.24,2.52,A,left,0.72,5,0.68,14,0.7,4,0.66,13,-999,32.0,1,3,2,-3.0,0.0,3.0,-1.0,0.0,-1.0,111
10,2,3826.73,44,4100.11,4101.62,5.12,A,mid,0.78,5,0.65,14,0.82,2,0.52,34,-999,2.0,2,1,3,3.0,0.0,0.0,-1.0,-3.0,-1.0,10
10,2,3826.73,45,4107.09,4108.6,1.96,C,right,0.19,52,0.56,17,0.8,12,-999.0,-999,-999,99.0,1,2,3,0.0,0.0,0.0,0.0,0.0,0.0,0
10,2,3826.73,46,4110.9,4112.42,1.8,A,right,0.72,4,0.65,15,0.88,2,0.58,34,-999,2.0,3,1,2,-3.0,-1.0,0.0,0.0,3.0,-1.0,0
10,2,3826.73,47,4114.57,4116.09,2.07,A,left,0.78,5,0.68,15,0.88,2,0.58,34,-999,1.0,1,2,3,3.0,0.0,3.0,0.0,3.0,-1.0,100
10,2,3826.73,48,4118.5,4120.02,2.5,C,right,0.78,4,0.68,15,0.88,3,0.58,35,-999,1.0,2,1,3,3.0,-1.0,3.0,0.0,3.0,0.0,101
10,2,3826.73,49,4122.85,4124.37,3.63,A,left,0.72,5,0.62,15,0.7,4,0.6,14,-999,31.0,1,2,3,-3.0,0.0,-3.0,0.0,0.0,-1.0,100
10,2,3826.73,50,4128.33,4129.85,4.5,A,mid,0.78,4,0.65,15,0.76,3,0.63,14,-999,32.0,2,3,1,3.0,-1.0,0.0,0.0,-3.0,-1.0,11
10,2,3826.73,51,4134.68,4136.2,2.48,C,left,0.16,62,0.46,21,0.87,11,-999.0,-999,-999,99.0,3,2,1,0.0,0.0,0.0,0.0,0.0,0.0,11
10,2,3826.73,52,4139.01,4140.53,3.07,A,mid,0.75,4,0.62,15,0.88,2,0.58,34,-999,2.0,2,1,3,0.0,-1.0,-3.0,0.0,3.0,-1.0,10
10,2,3826.73,53,4143.93,4145.44,3.37,C,mid,0.78,4,0.68,15,0.85,2,0.55,34,-999,1.0,1,3,2,3.0,-1.0,3.0,0.0,0.0,-1.0,10
10,2,3826.73,54,4149.16,4150.67,3.71,A,mid,0.75,5,0.65,14,0.73,4,0.63,13,-999,31.0,2,1,3,0.0,0.0,0.0,-1.0,0.0,0.0,110
10,2,3826.73,55,4154.72,4156.24,2.74,C,mid,0.29,34,0.42,23,0.72,13,-999.0,-999,-999,99.0,1,3,2,0.0,0.0,0.0,0.0,0.0,0.0,0
10,2,3826.73,56,4159.32,4160.84,6.86,B,mid,0.78,5,0.62,15,0.76,4,0.6,14,-999,32.0,1,2,3,3.0,0.0,-3.0,0.0,3.0,0.0,110
10,2,3826.73,57,4168.04,4169.55,4.25,A,mid,0.78,5,0.65,14,0.82,3,0.52,35,-999,1.0,2,3,1,3.0,0.0,0.0,-1.0,-3.0,0.0,111
10,2,3826.73,58,4174.13,4175.65,4.39,A,mid,0.78,4,0.62,15,0.76,3,0.6,14,-999,31.0,2,1,3,3.0,-1.0,-3.0,0.0,0.0,0.0,101
10,2,3826.73,59,4180.38,4181.9,3.76,A,right,0.78,4,0.62,15,0.76,3,0.6,14,-999,32.0,3,2,1,3.0,-1.0,-3.0,0.0,-3.0,-1.0,100
10,2,3826.73,60,4186.0,4187.51,1.61,C,right,0.27,37,0.47,21,0.86,11,-999.0,-999,-999,99.0,1,2,3,0.0,0.0,0.0,0.0,0.0,0.0,111
10,2,3826.73,61,4189.46,4190.98,2.55,A,left,0.78,4,0.62,15,0.85,2,0.55,34,-999,1.0,1,2,3,3.0,-1.0,-3.0,0.0,0.0,-1.0,1
10,2,3826.73,62,4193.86,4195.38,2.78,A,right,0.78,5,0.65,14,0.82,2,0.52,34,-999,1.0,3,2,1,3.0,0.0,0.0,-1.0,-3.0,-1.0,0
10,2,3826.73,63,4198.49,4200.01,2.55,A,mid,0.75,5,0.62,15,0.88,2,0.58,34,-999,1.0,2,3,1,0.0,0.0,-3.0,0.0,3.0,-1.0,10
10,2,3826.73,64,4202.89,4204.41,3.41,A,right,0.78,5,0.68,15,0.76,4,0.66,14,-999,31.0,3,1,2,3.0,0.0,3.0,0.0,0.0,0.0,111
10,2,3826.73,65,4208.16,4209.67,3.46,A,right,0.72,5,0.62,15,0.7,4,0.6,14,-999,32.0,3,2,1,-3.0,0.0,-3.0,0.0,0.0,0.0,110
10,2,3826.73,66,4213.47,4214.99,3.88,A,left,0.75,5,0.65,14,0.85,2,0.55,34,-999,2.0,1,2,3,0.0,0.0,0.0,-1.0,0.0,-1.0,100
10,2,3826.73,67,4219.2,4220.72,4.14,A,left,0.78,4,0.62,14,0.76,3,0.6,13,-999,32.0,1,2,3,3.0,-1.0,-3.0,-1.0,0.0,-1.0,0
10,2,3826.73,68,4225.2,4226.72,3.32,A,left,0.72,5,0.68,15,0.82,3,0.52,35,-999,2.0,1,2,3,-3.0,0.0,3.0,0.0,-3.0,0.0,10
10,2,3826.73,69,4230.38,4231.9,1.77,A,right,0.78,5,0.62,14,0.76,4,0.6,13,-999,31.0,3,1,2,3.0,0.0,-3.0,-1.0,-3.0,0.0,0
10,2,3826.73,70,4234.01,4235.53,2.53,C,left,0.75,5,0.65,15,0.85,3,0.55,35,-999,1.0,2,3,1,0.0,0.0,0.0,0.0,0.0,0.0,110
10,2,3826.73,71,4238.4,4239.91,3.19,A,right,0.72,4,0.68,14,0.7,3,0.66,13,-999,31.0,3,2,1,-3.0,-1.0,3.0,-1.0,-3.0,0.0,10
10,2,3826.73,72,4243.44,4244.96,3.93,A,right,0.75,4,0.62,15,0.88,3,0.58,35,-999,1.0,3,2,1,0.0,-1.0,-3.0,0.0,3.0,0.0,110
10,2,3826.73,73,4249.23,4250.74,2.99,A,right,0.78,4,0.68,15,0.76,3,0.66,14,-999,31.0,3,1,2,3.0,-1.0,3.0,0.0,0.0,0.0,10
10,2,3826.73,74,4254.07,4255.59,2.1,B,left,0.72,5,0.65,15,0.7,4,0.63,14,-999,31.0,2,1,3,-3.0,0.0,0.0,0.0,-3.0,-1.0,1
10,2,3826.73,75,4258.04,4259.56,5.1,A,right,0.72,5,0.68,15,0.82,2,0.52,34,-999,1.0,3,2,1,-3.0,0.0,3.0,0.0,-3.0,-1.0,110
10,Estimation3,4343.24,E1,4343.3,4344.81,1.71,A,left,0.75,11,0.65,15,0.85,-999,0.55,20,3,,1,3,2,,,,,,,110
10,Estimation3,4343.24,E2,4346.86,4348.38,3.83,B,mid,0.75,8,0.65,15,0.85,-999,0.55,20,1,2.0,3,2,1,,,,,,,110
10,Estimation3,4343.24,E3,4352.54,4354.06,1.64,A,right,0.75,8,0.65,15,0.85,-999,0.55,28,3,,3,2,1,,,,,,,11
10,Estimation3,4343.24,E4,4356.04,4357.56,2.02,B,right,0.75,6,0.65,15,0.85,-999,0.55,28,1,2.0,1,3,2,,,,,,,111
10,Estimation3,4343.24,E5,4359.91,4361.42,2.05,A,right,0.75,6,0.65,15,0.85,-999,0.55,32,3,,3,1,2,,,,,,,100
10,Estimation3,4343.24,E6,4363.82,4365.34,1.31,B,mid,0.75,5,0.65,15,0.85,-999,0.55,32,1,2.0,3,2,1,,,,,,,11
10,Estimation3,4343.24,E7,4366.99,4368.5,1.82,A,left,0.75,5,0.65,15,0.85,-999,0.55,34,3,,1,2,3,,,,,,,110
10,Estimation3,4343.24,E8,4370.67,4372.19,2.34,B,mid,0.75,5,0.65,15,0.85,3,0.55,34,1,2.0,1,2,3,,,,,,,0
10,Estimation3,4343.24,E9,4374.87,4376.39,2.88,A,right,0.75,5,0.65,15,0.85,3,0.55,35,2,1.0,3,2,1,,,,,,,111
10,Estimation3,4343.24,E10,4379.6,4381.12,2.85,B,left,0.75,5,0.65,15,0.85,3,0.55,35,1,2.0,3,1,2,,,,,,,101
10,3,4386.72,1,4386.78,4388.3,5.47,C,left,0.16,62,0.46,21,0.87,11,-999.0,-999,-999,99.0,3,2,1,0.0,0.0,0.0,0.0,0.0,0.0,0
10,3,4386.72,2,4394.11,4395.63,3.62,A,left,0.75,4,0.65,15,0.73,3,0.63,14,-999,31.0,1,3,2,0.0,-1.0,0.0,0.0,3.0,-1.0,100
10,3,4386.72,3,4399.58,4401.09,2.76,A,left,0.78,5,0.65,15,0.76,4,0.63,14,-999,32.0,1,3,2,3.0,0.0,0.0,0.0,-3.0,-1.0,100
10,3,4386.72,4,4404.19,4405.71,4.2,A,right,0.75,5,0.65,14,0.73,4,0.63,13,-999,31.0,3,1,2,0.0,0.0,0.0,-1.0,0.0,0.0,100
10,3,4386.72,5,4410.24,4411.76,3.36,A,mid,0.75,4,0.65,14,0.73,3,0.63,13,-999,32.0,2,1,3,0.0,-1.0,0.0,-1.0,3.0,0.0,110
10,3,4386.72,6,4415.46,4416.97,2.69,A,right,0.78,4,0.65,15,0.76,3,0.63,14,-999,32.0,3,2,1,3.0,-1.0,0.0,0.0,-3.0,-1.0,111
10,3,4386.72,7,4420.0,4421.52,2.89,A,mid,0.72,4,0.68,14,0.7,3,0.66,13,-999,31.0,2,3,1,-3.0,-1.0,3.0,-1.0,-3.0,0.0,111
10,3,4386.72,8,4424.75,4426.27,2.19,C,right,0.28,35,0.67,14,0.78,12,-999.0,-999,-999,99.0,2,1,3,0.0,0.0,0.0,0.0,0.0,0.0,111
10,3,4386.72,9,4428.8,4430.32,1.23,C,left,0.29,34,0.42,23,0.72,13,-999.0,-999,-999,99.0,2,3,1,0.0,0.0,0.0,0.0,0.0,0.0,111
10,3,4386.72,10,4431.88,4433.4,2.51,A,left,0.75,5,0.65,15,0.73,4,0.63,14,-999,31.0,1,2,3,0.0,0.0,0.0,0.0,0.0,-1.0,11
10,3,4386.72,11,4436.25,4437.77,1.54,A,right,0.72,5,0.62,14,0.7,4,0.6,13,-999,32.0,3,1,2,-3.0,0.0,-3.0,-1.0,0.0,0.0,111
10,3,4386.72,12,4439.63,4441.15,2.43,C,mid,0.19,52,0.56,17,0.8,12,-999.0,-999,-999,99.0,1,3,2,0.0,0.0,0.0,0.0,0.0,0.0,1
10,3,4386.72,13,4443.91,4445.43,2.25,A,right,0.78,4,0.68,14,0.76,3,0.66,13,-999,32.0,3,1,2,3.0,-1.0,3.0,-1.0,3.0,-1.0,10
10,3,4386.72,14,4448.01,4449.53,2.08,A,left,0.75,4,0.62,15,0.88,2,0.58,34,-999,2.0,1,2,3,0.0,-1.0,-3.0,0.0,3.0,-1.0,11
10,3,4386.72,15,4451.94,4453.46,3.82,A,left,0.78,5,0.62,14,0.85,2,0.55,34,-999,1.0,1,3,2,3.0,0.0,-3.0,-1.0,0.0,-1.0,10
10,3,4386.72,16,4457.63,4459.14,4.4,C,mid,0.78,4,0.68,15,0.88,3,0.58,35,-999,1.0,3,1,2,3.0,-1.0,3.0,0.0,3.0,0.0,1
10,3,4386.72,17,4463.87,4465.39,3.44,A,mid,0.75,4,0.68,14,0.73,3,0.66,13,-999,32.0,2,3,1,0.0,-1.0,3.0,-1.0,0.0,0.0,101
10,3,4386.72,18,4469.17,4470.69,2.08,A,right,0.72,4,0.65,14,0.7,3,0.63,13,-999,31.0,3,2,1,-3.0,-1.0,0.0,-1.0,3.0,-1.0,110
10,3,4386.72,19,4473.1,4474.62,3.71,B,mid,0.78,4,0.62,15,0.85,2,0.55,34,-999,1.0,3,2,1,3.0,-1.0,-3.0,0.0,0.0,-1.0,111
10,3,4386.72,20,4478.67,4480.19,3.24,A,left,0.72,5,0.62,14,0.85,3,0.55,35,-999,2.0,1,2,3,-3.0,0.0,-3.0,-1.0,0.0,0.0,1
10,3,4386.72,21,4483.77,4485.28,5.48,A,left,0.72,4,0.68,14,0.85,3,0.55,35,-999,2.0,1,2,3,-3.0,-1.0,3.0,-1.0,0.0,0.0,0
10,3,4386.72,22,4491.1,4492.61,3.14,A,mid,0.72,4,0.62,14,0.88,3,0.58,35,-999,2.0,2,3,1,-3.0,-1.0,-3.0,-1.0,3.0,0.0,111
10,3,4386.72,23,4496.1,4497.61,3.57,A,left,0.78,4,0.62,15,0.76,3,0.6,14,-999,31.0,1,3,2,3.0,-1.0,-3.0,0.0,0.0,0.0,11
10,3,4386.72,24,4501.51,4503.03,3.34,B,left,0.72,5,0.68,15,0.82,3,0.52,35,-999,2.0,2,1,3,-3.0,0.0,3.0,0.0,-3.0,0.0,11
10,3,4386.72,25,4506.71,4508.23,3.99,C,right,0.75,4,0.68,15,0.88,3,0.58,35,-999,1.0,1,2,3,0.0,-1.0,3.0,0.0,3.0,0.0,110
10,3,4386.72,26,4512.56,4514.07,3.63,A,right,0.72,4,0.65,15,0.7,3,0.63,14,-999,31.0,3,1,2,-3.0,-1.0,0.0,0.0,3.0,-1.0,10
10,3,4386.72,27,4518.04,4519.56,2.89,A,mid,0.78,4,0.62,14,0.76,3,0.6,13,-999,32.0,2,1,3,3.0,-1.0,-3.0,-1.0,0.0,-1.0,100
10,3,4386.72,28,4522.79,4524.3,6.46,A,left,0.75,5,0.65,15,0.85,3,0.55,35,-999,1.0,1,2,3,0.0,0.0,0.0,0.0,0.0,0.0,11
10,3,4386.72,29,4531.1,4532.62,2.46,A,left,0.78,5,0.65,14,0.82,2,0.52,34,-999,2.0,1,3,2,3.0,0.0,0.0,-1.0,-3.0,-1.0,111
10,3,4386.72,30,4535.42,4536.93,3.87,A,mid,0.72,4,0.65,15,0.7,3,0.63,14,-999,31.0,2,3,1,-3.0,-1.0,0.0,0.0,3.0,-1.0,11
10,3,4386.72,31,4541.15,4542.67,3.47,A,mid,0.72,5,0.62,15,0.7,4,0.6,14,-999,32.0,2,3,1,-3.0,0.0,-3.0,0.0,0.0,0.0,10
10,3,4386.72,32,4546.46,4547.98,2.14,A,right,0.72,5,0.68,15,0.82,2,0.52,34,-999,1.0,3,2,1,-3.0,0.0,3.0,0.0,-3.0,-1.0,101
10,3,4386.72,33,4550.46,4551.98,2.71,A,right,0.72,4,0.65,15,0.88,2,0.58,34,-999,2.0,3,2,1,-3.0,-1.0,0.0,0.0,3.0,-1.0,111
10,3,4386.72,34,4555.03,4556.54,4.48,C,mid,0.27,37,0.47,21,0.86,11,-999.0,-999,-999,99.0,3,1,2,0.0,0.0,0.0,0.0,0.0,0.0,10
10,3,4386.72,35,4561.36,4562.88,2.72,A,mid,0.78,5,0.65,15,0.76,4,0.63,14,-999,32.0,2,1,3,3.0,0.0,0.0,0.0,0.0,0.0,110
10,3,4386.72,36,4565.94,4567.46,4.34,A,left,0.78,5,0.65,14,0.82,3,0.52,35,-999,1.0,1,3,2,3.0,0.0,0.0,-1.0,-3.0,0.0,0
10,3,4386.72,37,4572.14,4573.66,2.01,A,mid,0.72,4,0.68,15,0.88,3,0.58,35,-999,2.0,2,3,1,-3.0,-1.0,3.0,0.0,3.0,0.0,11
10,3,4386.72,38,4654.1,4655.61,2.57,C,right,0.32,31,0.48,20,0.85,11,-999.0,-999,-999,99.0,1,2,3,0.0,0.0,0.0,0.0,0.0,0.0,11
10,3,4386.72,39,4658.53,4660.04,2.53,C,mid,0.72,5,0.68,14,0.88,3,0.58,35,-999,2.0,3,1,2,-3.0,0.0,3.0,-1.0,3.0,0.0,110
10,3,4386.72,40,4662.91,4664.43,1.43,A,right,0.72,5,0.65,14,0.7,4,0.63,13,-999,32.0,3,1,2,-3.0,0.0,0.0,-1.0,3.0,0.0,10
10,3,4386.72,41,4666.19,4667.71,2.15,A,left,0.78,5,0.68,15,0.76,4,0.66,14,-999,31.0,1,3,2,3.0,0.0,3.0,0.0,0.0,0.0,1
10,3,4386.72,42,4670.19,4671.71,1.89,A,mid,0.75,4,0.62,15,0.88,3,0.58,35,-999,1.0,2,1,3,0.0,-1.0,-3.0,0.0,3.0,0.0,11
10,3,4386.72,43,4673.94,4675.46,3.28,A,left,0.72,5,0.62,15,0.7,4,0.6,14,-999,32.0,1,3,2,-3.0,0.0,-3.0,0.0,3.0,-1.0,110
10,3,4386.72,44,4679.07,4680.59,2.07,A,mid,0.75,5,0.65,15,0.82,2,0.52,34,-999,1.0,2,1,3,0.0,0.0,0.0,0.0,-3.0,-1.0,100
10,3,4386.72,45,4683.0,4684.52,3.15,A,mid,0.78,4,0.68,15,0.85,2,0.55,34,-999,1.0,2,3,1,3.0,-1.0,3.0,0.0,0.0,-1.0,10
10,3,4386.72,46,4688.02,4689.53,1.82,A,right,0.75,4,0.62,15,0.73,3,0.6,14,-999,32.0,3,2,1,0.0,-1.0,-3.0,0.0,-3.0,0.0,1
10,3,4386.72,47,4691.68,4693.2,1.36,A,mid,0.72,5,0.62,14,0.85,3,0.55,35,-999,2.0,2,1,3,-3.0,0.0,-3.0,-1.0,0.0,0.0,10
10,3,4386.72,48,4694.9,4696.42,1.51,A,right,0.72,5,0.68,14,0.7,4,0.66,13,-999,32.0,3,1,2,-3.0,0.0,3.0,-1.0,0.0,-1.0,100
10,3,4386.72,49,4698.27,4699.78,2.09,A,left,0.78,5,0.62,15,0.76,4,0.6,14,-999,32.0,1,2,3,3.0,0.0,-3.0,0.0,3.0,0.0,100
10,3,4386.72,50,4702.21,4703.73,1.68,A,mid,0.78,5,0.62,14,0.76,4,0.6,13,-999,31.0,2,3,1,3.0,0.0,-3.0,-1.0,-3.0,0.0,0
10,3,4386.72,51,4705.75,4707.26,7.97,A,right,0.75,4,0.68,14,0.85,2,0.55,34,-999,2.0,3,2,1,0.0,-1.0,3.0,-1.0,0.0,-1.0,11
10,3,4386.72,52,4715.58,4717.09,2.02,A,left,0.75,5,0.65,14,0.85,2,0.55,34,-999,2.0,1,3,2,0.0,0.0,0.0,-1.0,0.0,-1.0,0
10,3,4386.72,53,4719.46,4720.97,3.59,A,right,0.72,5,0.65,15,0.7,4,0.63,14,-999,31.0,3,1,2,-3.0,0.0,0.0,0.0,-3.0,-1.0,110
10,3,4386.72,54,4724.91,4726.42,1.44,A,left,0.75,5,0.62,14,0.88,3,0.58,35,-999,2.0,1,3,2,0.0,0.0,-3.0,-1.0,3.0,0.0,100
10,3,4386.72,55,4728.21,4729.72,2.38,A,left,0.78,5,0.62,14,0.85,3,0.55,35,-999,2.0,1,3,2,3.0,0.0,-3.0,-1.0,0.0,0.0,111
10,3,4386.72,56,4732.44,4733.95,2.4,A,mid,0.75,4,0.68,14,0.73,3,0.66,13,-999,31.0,2,3,1,0.0,-1.0,3.0,-1.0,0.0,-1.0,111
10,3,4386.72,57,4736.69,4738.2,1.54,C,left,0.19,52,0.59,16,0.81,12,-999.0,-999,-999,99.0,3,2,1,0.0,0.0,0.0,0.0,0.0,0.0,101
10,3,4386.72,58,4740.09,4741.6,3.01,B,mid,0.72,4,0.65,15,0.85,3,0.55,35,-999,2.0,3,2,1,-3.0,-1.0,0.0,0.0,0.0,0.0,1
10,3,4386.72,59,4744.95,4746.47,3.08,A,right,0.72,5,0.62,15,0.7,4,0.6,14,-999,31.0,3,1,2,-3.0,0.0,-3.0,0.0,0.0,-1.0,100
10,3,4386.72,60,4749.88,4751.4,5.23,A,mid,0.75,5,0.62,15,0.88,2,0.58,34,-999,1.0,2,1,3,0.0,0.0,-3.0,0.0,3.0,-1.0,0
10,3,4386.72,61,4756.96,4758.48,4.89,A,mid,0.72,5,0.65,15,0.82,2,0.52,34,-999,1.0,2,3,1,-3.0,0.0,0.0,0.0,-3.0,-1.0,111
10,3,4386.72,62,4763.71,4765.23,1.45,A,right,0.78,4,0.62,15,0.76,3,0.6,14,-999,32.0,3,2,1,3.0,-1.0,-3.0,0.0,-3.0,-1.0,111
10,3,4386.72,63,4767.03,4768.54,5.48,A,mid,0.78,4,0.68,15,0.76,3,0.66,14,-999,31.0,2,1,3,3.0,-1.0,3.0,0.0,0.0,0.0,101
10,3,4386.72,64,4774.36,4775.87,2.05,A,mid,0.72,5,0.65,15,0.82,2,0.52,34,-999,2.0,2,3,1,-3.0,0.0,0.0,0.0,-3.0,-1.0,101
10,3,4386.72,65,4778.27,4779.79,2.32,C,right,0.32,31,0.6,16,0.78,12,-999.0,-999,-999,99.0,1,2,3,0.0,0.0,0.0,0.0,0.0,0.0,111
10,3,4386.72,66,4782.45,4783.97,2.35,A,right,0.75,5,0.65,15,0.73,4,0.63,14,-999,31.0,3,1,2,0.0,0.0,0.0,0.0,0.0,0.0,100
10,3,4386.72,67,4786.65,4788.17,5.97,A,left,0.72,4,0.62,15,0.7,3,0.6,14,-999,32.0,1,3,2,-3.0,-1.0,-3.0,0.0,-3.0,-1.0,101
10,3,4386.72,68,4794.47,4795.98,2.51,A,left,0.78,5,0.68,15,0.88,2,0.58,34,-999,1.0,1,3,2,3.0,0.0,3.0,0.0,3.0,-1.0,100
10,3,4386.72,69,4798.83,4800.35,3.39,B,right,0.72,5,0.68,15,0.82,2,0.52,34,-999,1.0,2,3,1,-3.0,0.0,3.0,0.0,-3.0,-1.0,101
10,3,4386.72,70,4804.08,4805.6,3.9,C,mid,0.31,32,0.38,26,0.85,11,-999.0,-999,-999,99.0,1,3,2,0.0,0.0,0.0,0.0,0.0,0.0,111
10,3,4386.72,71,4809.83,4811.35,4.21,C,left,0.24,41,0.37,27,0.76,13,-999.0,-999,-999,99.0,2,3,1,0.0,0.0,0.0,0.0,0.0,0.0,10
10,3,4386.72,72,4815.89,4817.41,6.74,A,right,0.78,5,0.65,14,0.82,2,0.52,34,-999,1.0,3,2,1,3.0,0.0,0.0,-1.0,-3.0,-1.0,0
10,3,4386.72,73,4824.49,4826.01,3.32,A,mid,0.75,5,0.65,14,0.73,4,0.63,13,-999,31.0,2,3,1,0.0,0.0,0.0,-1.0,-3.0,-1.0,111
10,3,4386.72,74,4829.67,4831.19,4.84,A,mid,0.78,5,0.68,15,0.82,3,0.52,35,-999,1.0,2,3,1,3.0,0.0,3.0,0.0,-3.0,0.0,10
10,3,4386.72,75,4836.37,4837.89,2.72,C,mid,0.27,37,0.61,16,0.89,11,-999.0,-999,-999,99.0,1,3,2,0.0,0.0,0.0,0.0,0.0,0.0,11
