subject,block,block_onset,trial,fixation_cross_onset,trial_onset,rt,choice,key,pA,mA,pB,mB,pCA,mCA,pCB,mCB,missing,condition,position_A,position_B,position_C,noise_Ap,noise_Am,noise_Bp,noise_Bm,noise_Cp,noise_Cm,attribute_positions
22,Practice,508.09,P1,508.17,509.68,4.3,A,right,0.78,7,0.62,17,0.85,3,0.55,24,-999,2.0,3,1,2,3.0,-2.0,-3.0,2.0,0.0,-1.0,1
22,Practice,508.09,P2,514.33,515.85,3.74,B,mid,0.72,7,0.62,16,0.88,5,0.58,26,-999,2.0,1,2,3,-3.0,-2.0,-3.0,1.0,3.0,1.0,10
22,Practice,508.09,P3,519.93,521.45,3.47,A,mid,0.75,11,0.68,13,0.85,4,0.55,25,-999,1.0,2,3,1,0.0,2.0,3.0,-2.0,0.0,0.0,110
22,Practice,508.09,P4,525.28,526.8,2.96,A,right,0.75,9,0.65,15,0.88,5,0.58,26,-999,1.0,3,1,2,0.0,0.0,0.0,0.0,3.0,1.0,100
22,Practice,508.09,P5,530.09,531.61,3.35,B,right,0.72,11,0.62,13,0.85,6,0.55,27,-999,1.0,1,3,2,-3.0,2.0,-3.0,-2.0,0.0,2.0,101
22,Practice,508.09,P6,535.31,536.83,2.28,C,left,0.78,7,0.62,13,0.82,6,0.52,27,-999,2.0,2,3,1,3.0,-2.0,-3.0,-2.0,-3.0,2.0,110
22,Practice,508.09,P7,539.44,540.96,2.93,C,right,0.75,7,0.65,17,0.85,5,0.55,26,-999,2.0,2,1,3,0.0,-2.0,0.0,2.0,0.0,1.0,111
22,Practice,508.09,P8,544.22,545.74,3.06,B,left,0.72,8,0.68,15,0.82,6,0.52,27,-999,2.0,3,1,2,-3.0,-1.0,3.0,0.0,-3.0,2.0,110
22,Practice,508.09,P9,549.14,550.66,3.28,A,right,0.78,8,0.62,16,0.88,5,0.58,26,-999,1.0,3,1,2,3.0,-1.0,-3.0,1.0,3.0,1.0,1
22,Practice,508.09,P10,554.29,555.8,3.01,C,right,0.75,10,0.65,16,0.82,2,0.52,23,-999,2.0,1,2,3,0.0,1.0,0.0,1.0,-3.0,-2.0,101
22,Practice,508.09,P11,559.15,560.67,3.97,C,left,0.72,8,0.65,15,0.85,5,0.55,26,-999,2.0,2,3,1,-3.0,-1.0,0.0,0.0,0.0,1.0,0
22,Practice,508.09,P12,564.98,566.5,3.05,B,right,0.72,8,0.68,15,0.85,5,0.55,26,-999,1.0,2,3,1,-3.0,-1.0,3.0,0.0,0.0,1.0,101
22,Practice,508.09,P13,569.88,571.4,3.62,B,left,0.78,11,0.68,16,0.88,5,0.58,26,-999,1.0,2,1,3,3.0,2.0,3.0,1.0,3.0,1.0,111
22,Practice,508.09,P14,575.36,576.88,2.51,A,right,0.72,11,0.62,17,0.82,3,0.52,24,-999,2.0,3,2,1,-3.0,2.0,-3.0,2.0,-3.0,-1.0,0
22,Practice,508.09,P15,579.73,581.24,2.74,C,left,0.78,7,0.68,14,0.88,5,0.58,26,-999,2.0,2,3,1,3.0,-2.0,3.0,-1.0,3.0,1.0,10
22,Practice,508.09,P16,584.33,585.84,3.42,A,mid,0.78,7,0.65,13,0.82,2,0.52,23,-999,2.0,2,1,3,3.0,-2.0,0.0,-2.0,-3.0,-2.0,1
22,Practice,508.09,P17,589.61,591.13,2.39,A,right,0.72,10,0.65,13,0.82,5,0.52,26,-999,2.0,3,2,1,-3.0,1.0,0.0,-2.0,-3.0,1.0,110
22,Practice,508.09,P18,593.86,595.37,2.97,C,mid,0.78,7,0.68,13,0.88,2,0.58,23,-999,2.0,3,1,2,3.0,-2.0,3.0,-2.0,3.0,-2.0,10
22,Practice,508.09,P19,598.69,600.21,2.27,A,right,0.78,11,0.62,15,0.85,4,0.55,25,-999,1.0,3,1,2,3.0,2.0,-3.0,0.0,0.0,0.0,110
22,Practice,508.09,P20,602.82,604.34,3.14,B,right,0.72,7,0.65,14,0.88,4,0.58,25,-999,1.0,1,3,2,-3.0,-2.0,0.0,-1.0,3.0,0.0,11
22,Practice,508.09,P21,607.82,609.34,3.55,A,right,0.78,9,0.65,16,0.85,2,0.55,23,-999,1.0,3,1,2,3.0,0.0,0.0,1.0,0.0,-2.0,0
22,Practice,508.09,P22,613.22,614.73,3.13,B,right,0.72,9,0.62,15,0.85,2,0.55,23,-999,1.0,1,3,2,-3.0,0.0,-3.0,0.0,0.0,-2.0,10
22,Practice,508.09,P23,618.2,619.72,3.63,A,right,0.72,7,0.65,13,0.88,3,0.58,24,-999,1.0,3,1,2,-3.0,-2.0,0.0,-2.0,3.0,-1.0,100
22,Practice,508.09,P24,623.68,625.2,3.37,B,left,0.78,7,0.65,13,0.82,5,0.52,26,-999,2.0,2,1,3,3.0,-2.0,0.0,-2.0,-3.0,1.0,10
22,Practice,508.09,P25,628.9,630.41,3.87,A,mid,0.78,10,0.68,13,0.85,4,0.55,25,-999,1.0,2,3,1,3.0,1.0,3.0,-2.0,0.0,0.0,111
22,Estimation1,725.68,E1,725.75,727.26,2.22,A,mid,0.75,11,0.65,15,0.85,-999,0.55,20,3,,2,1,3,,,,,,,11
22,Estimation1,725.68,E2,729.83,731.35,2.8,B,right,0.75,8,0.65,15,0.85,-999,0.55,20,1,2.0,1,3,2,,,,,,,101
22,Estimation1,725.68,E3,734.48,736.0,2.28,B,left,0.75,8,0.65,15,0.85,-999,0.55,28,3,,3,1,2,,,,,,,100
22,Estimation1,725.68,E4,738.61,740.13,3.22,B,right,0.75,10,0.65,15,0.85,-999,0.55,28,1,2.0,2,3,1,,,,,,,101
22,Estimation1,725.68,E5,743.69,745.21,2.7,A,left,0.75,10,0.65,15,0.85,-999,0.55,32,3,,1,2,3,,,,,,,1
22,Estimation1,725.68,E6,748.24,749.76,2.93,C,right,0.75,9,0.65,15,0.85,-999,0.55,32,1,2.0,2,1,3,,,,,,,101
22,Estimation1,725.68,E7,753.02,754.54,2.7,B,mid,0.75,9,0.65,15,0.85,-999,0.55,30,3,,1,2,3,,,,,,,100
22,Estimation1,725.68,E8,757.59,759.1,2.51,C,left,0.75,10,0.65,15,0.85,-999,0.55,30,1,2.0,2,3,1,,,,,,,100
22,Estimation1,725.68,E9,761.95,763.47,2.47,A,right,0.75,10,0.65,15,0.85,-999,0.55,29,3,,3,2,1,,,,,,,100
22,Estimation1,725.68,E10,766.28,767.8,2.08,B,right,0.75,10,0.65,15,0.85,5,0.55,29,1,2.0,1,3,2,,,,,,,0
22,Estimation1,725.68,E11,770.22,771.73,2.32,A,left,0.75,10,0.65,15,0.85,5,0.55,30,2,1.0,1,2,3,,,,,,,101
22,Estimation1,725.68,E12,774.4,775.92,2.62,B,left,0.75,10,0.65,15,0.85,7,0.55,30,1,2.0,2,1,3,,,,,,,110
22,Estimation1,725.68,E13,778.88,780.4,2.84,A,mid,0.75,10,0.65,15,0.85,7,0.55,30,2,1.0,2,1,3,,,,,,,11
22,Estimation1,725.68,E14,783.58,785.1,2.84,C,right,0.75,10,0.65,15,0.85,8,0.55,30,1,2.0,1,2,3,,,,,,,100
22,Estimation1,725.68,E15,788.28,789.79,2.74,C,right,0.75,10,0.65,15,0.85,8,0.55,30,2,1.0,2,1,3,,,,,,,110
22,1,807.25,1,807.32,808.84,3.23,A,mid,0.78,10,0.62,15,0.76,9,0.6,14,-999,32.0,2,1,3,3.0,0.0,-3.0,0.0,3.0,0.0,111
22,1,807.25,2,812.4,813.92,2.78,A,left,0.78,10,0.65,14,0.82,7,0.52,29,-999,1.0,1,3,2,3.0,0.0,0.0,-1.0,-3.0,-1.0,110
22,1,807.25,3,817.04,818.55,3.63,B,right,0.78,10,0.68,15,0.76,9,0.66,14,-999,31.0,1,3,2,3.0,0.0,3.0,0.0,0.0,0.0,111
22,1,807.25,4,822.52,824.03,3.61,C,left,0.72,9,0.65,15,0.88,7,0.58,29,-999,2.0,3,2,1,-3.0,-1.0,0.0,0.0,3.0,-1.0,111
22,1,807.25,5,827.98,829.5,3.97,B,right,0.78,10,0.65,15,0.76,9,0.63,14,-999,32.0,1,3,2,3.0,0.0,0.0,0.0,0.0,0.0,101
22,1,807.25,6,833.8,835.31,3.79,A,left,0.78,9,0.62,15,0.76,8,0.6,14,-999,32.0,1,2,3,3.0,-1.0,-3.0,0.0,-3.0,-1.0,101
22,1,807.25,7,839.45,840.96,3.97,A,right,0.72,9,0.62,15,0.7,8,0.6,14,-999,32.0,3,2,1,-3.0,-1.0,-3.0,0.0,-3.0,-1.0,1
22,1,807.25,8,845.28,846.79,4.14,B,right,0.78,9,0.68,15,0.85,7,0.55,29,-999,1.0,1,3,2,3.0,-1.0,3.0,0.0,0.0,-1.0,100
22,1,807.25,9,851.27,852.79,4.06,C,left,0.31,32,0.38,26,0.85,11,-999.0,-999,-999,99.0,2,3,1,0.0,0.0,0.0,0.0,0.0,0.0,101
22,1,807.25,10,857.19,858.71,4.53,A,right,0.75,9,0.68,14,0.85,7,0.55,29,-999,2.0,3,2,1,0.0,-1.0,3.0,-1.0,0.0,-1.0,111
22,1,807.25,11,863.57,865.09,6.5,C,mid,0.72,9,0.62,14,0.88,8,0.58,30,-999,2.0,1,3,2,-3.0,-1.0,-3.0,-1.0,3.0,0.0,101
22,1,807.25,12,871.92,873.43,3.71,B,left,0.72,9,0.68,14,0.85,8,0.55,30,-999,2.0,3,1,2,-3.0,-1.0,3.0,-1.0,0.0,0.0,0
22,1,807.25,13,877.48,879.0,4.19,C,mid,0.32,31,0.48,20,0.85,11,-999.0,-999,-999,99.0,3,1,2,0.0,0.0,0.0,0.0,0.0,0.0,0
22,1,807.25,14,883.53,885.05,4.89,B,left,0.75,9,0.65,14,0.73,8,0.63,13,-999,32.0,3,1,2,0.0,-1.0,0.0,-1.0,3.0,0.0,111
22,1,807.25,15,890.28,891.79,4.56,B,left,0.75,9,0.68,14,0.73,8,0.66,13,-999,32.0,3,1,2,0.0,-1.0,3.0,-1.0,0.0,0.0,10
22,1,807.25,16,896.69,898.21,3.91,A,right,0.78,9,0.62,15,0.76,8,0.6,14,-999,31.0,3,2,1,3.0,-1.0,-3.0,0.0,0.0,0.0,110
22,1,807.25,17,902.46,903.97,4.32,C,right,0.75,10,0.65,15,0.85,8,0.55,30,-999,1.0,2,1,3,0.0,0.0,0.0,0.0,0.0,0.0,0
22,1,807.25,18,908.64,910.16,5.09,C,right,0.72,10,0.68,15,0.82,7,0.52,29,-999,1.0,2,1,3,-3.0,0.0,3.0,0.0,-3.0,-1.0,11
22,1,807.25,19,915.59,917.1,4.01,A,mid,0.72,10,0.65,14,0.7,9,0.63,13,-999,32.0,2,1,3,-3.0,0.0,0.0,-1.0,3.0,0.0,101
22,1,807.25,20,921.45,922.97,4.53,A,mid,0.72,10,0.68,15,0.82,8,0.52,30,-999,2.0,2,1,3,-3.0,0.0,3.0,0.0,-3.0,0.0,1
22,1,807.25,21,927.83,929.35,4.75,A,mid,0.75,10,0.62,15,0.88,7,0.58,29,-999,1.0,2,3,1,0.0,0.0,-3.0,0.0,3.0,-1.0,11
22,1,807.25,22,934.45,935.96,5.36,B,mid,0.72,10,0.65,15,0.7,9,0.63,14,-999,31.0,1,2,3,-3.0,0.0,0.0,0.0,-3.0,-1.0,100
22,1,807.25,23,941.66,943.18,4.54,B,right,0.72,10,0.65,15,0.82,7,0.52,29,-999,2.0,1,3,2,-3.0,0.0,0.0,0.0,-3.0,-1.0,11
22,1,807.25,24,948.06,949.58,4.28,A,left,0.75,10,0.62,14,0.88,8,0.58,30,-999,2.0,1,2,3,0.0,0.0,-3.0,-1.0,3.0,0.0,101
22,1,807.25,25,954.19,955.71,6.11,B,mid,0.75,10,0.65,14,0.85,7,0.55,29,-999,2.0,1,2,3,0.0,0.0,0.0,-1.0,0.0,-1.0,111
22,1,807.25,26,962.16,963.67,4.76,A,mid,0.75,10,0.65,15,0.82,7,0.52,29,-999,1.0,2,1,3,0.0,0.0,0.0,0.0,-3.0,-1.0,101
22,1,807.25,27,968.77,970.29,3.81,A,mid,0.78,9,0.62,14,0.76,8,0.6,13,-999,32.0,2,3,1,3.0,-1.0,-3.0,-1.0,0.0,-1.0,100
22,1,807.25,28,974.43,975.95,6.77,A,mid,0.72,9,0.65,14,0.7,8,0.63,13,-999,31.0,2,1,3,-3.0,-1.0,0.0,-1.0,3.0,-1.0,0
22,1,807.25,29,983.07,984.58,5.62,A,mid,0.72,10,0.68,15,0.82,7,0.52,29,-999,1.0,2,3,1,-3.0,0.0,3.0,0.0,-3.0,-1.0,110
22,1,807.25,30,990.55,992.06,3.76,C,right,0.75,9,0.68,15,0.88,8,0.58,30,-999,1.0,1,2,3,0.0,-1.0,3.0,0.0,3.0,0.0,10
22,1,807.25,31,996.16,997.68,4.34,A,left,0.72,10,0.62,15,0.7,9,0.6,14,-999,32.0,1,3,2,-3.0,0.0,-3.0,0.0,3.0,-1.0,100
22,1,807.25,32,1002.36,1003.87,4.46,B,left,0.75,9,0.68,14,0.73,8,0.66,13,-999,31.0,3,1,2,0.0,-1.0,3.0,-1.0,0.0,-1.0,110
22,1,807.25,33,1008.67,1010.19,3.83,A,mid,0.75,10,0.65,14,0.73,9,0.63,13,-999,31.0,2,3,1,0.0,0.0,0.0,-1.0,0.0,0.0,0
22,1,807.25,34,1014.36,1015.87,4.36,A,mid,0.78,10,0.65,15,0.76,9,0.63,14,-999,32.0,2,1,3,3.0,0.0,0.0,0.0,-3.0,-1.0,111
22,1,807.25,35,1020.62,1022.14,6.91,C,right,0.19,52,0.59,16,0.81,12,-999.0,-999,-999,99.0,1,2,3,0.0,0.0,0.0,0.0,0.0,0.0,100
22,1,807.25,36,1029.38,1030.9,5.44,A,left,0.78,9,0.68,15,0.88,8,0.58,30,-999,1.0,1,2,3,3.0,-1.0,3.0,0.0,3.0,0.0,110
22,1,807.25,37,1036.68,1038.2,4.86,C,right,0.28,35,0.67,14,0.78,12,-999.0,-999,-999,99.0,1,2,3,0.0,0.0,0.0,0.0,0.0,0.0,11
22,1,807.25,38,1071.24,1072.75,4.08,C,mid,0.78,10,0.65,14,0.82,8,0.52,30,-999,1.0,3,1,2,3.0,0.0,0.0,-1.0,-3.0,0.0,110
22,1,807.25,39,1077.17,1078.68,3.09,A,mid,0.72,10,0.62,15,0.7,9,0.6,14,-999,32.0,2,1,3,-3.0,0.0,-3.0,0.0,0.0,0.0,110
22,1,807.25,40,1082.12,1083.63,3.17,C,mid,0.75,9,0.62,15,0.88,8,0.58,30,-999,1.0,1,3,2,0.0,-1.0,-3.0,0.0,3.0,0.0,1
22,1,807.25,41,1087.15,1088.66,7.28,B,mid,0.75,9,0.65,15,0.73,8,0.63,14,-999,31.0,1,2,3,0.0,-1.0,0.0,0.0,3.0,-1.0,110
22,1,807.25,42,1096.28,1097.79,3.82,A,right,0.75,10,0.65,15,0.73,9,0.63,14,-999,31.0,3,1,2,0.0,0.0,0.0,0.0,0.0,0.0,10
22,1,807.25,43,1101.96,1103.48,3.16,C,left,0.78,10,0.68,15,0.82,8,0.52,30,-999,1.0,3,2,1,3.0,0.0,3.0,0.0,-3.0,0.0,1
22,1,807.25,44,1106.97,1108.49,4.88,C,right,0.24,41,0.37,27,0.76,13,-999.0,-999,-999,99.0,2,1,3,0.0,0.0,0.0,0.0,0.0,0.0,10
22,1,807.25,45,1113.71,1115.22,5.6,B,right,0.72,9,0.65,15,0.85,8,0.55,30,-999,2.0,2,3,1,-3.0,-1.0,0.0,0.0,0.0,0.0,11
22,1,807.25,46,1121.15,1122.67,5.37,C,right,0.16,62,0.46,21,0.87,11,-999.0,-999,-999,99.0,1,2,3,0.0,0.0,0.0,0.0,0.0,0.0,10
22,1,807.25,47,1128.37,1129.88,4.31,B,mid,0.72,10,0.62,14,0.85,8,0.55,30,-999,2.0,1,2,3,-3.0,0.0,-3.0,-1.0,0.0,0.0,11
22,1,807.25,48,1134.53,1136.05,5.19,A,right,0.78,10,0.62,14,0.85,8,0.55,30,-999,2.0,3,2,1,3.0,0.0,-3.0,-1.0,0.0,0.0,0
22,1,807.25,49,1141.58,1143.1,5.95,A,mid,0.75,9,0.62,15,0.73,8,0.6,14,-999,32.0,2,1,3,0.0,-1.0,-3.0,0.0,-3.0,0.0,1
22,1,807.25,50,1149.39,1150.91,3.16,A,mid,0.75,10,0.65,15,0.73,9,0.63,14,-999,31.0,2,1,3,0.0,0.0,0.0,0.0,0.0,-1.0,10
22,1,807.25,51,1154.41,1155.93,4.73,B,mid,0.78,9,0.68,14,0.76,8,0.66,13,-999,32.0,1,2,3,3.0,-1.0,3.0,-1.0,3.0,-1.0,0
22,1,807.25,52,1160.99,1162.51,6.54,A,mid,0.78,10,0.62,14,0.76,9,0.6,13,-999,31.0,2,1,3,3.0,0.0,-3.0,-1.0,-3.0,0.0,100
22,1,807.25,53,1169.39,1170.9,4.75,A,left,0.78,10,0.65,14,0.82,7,0.52,29,-999,2.0,1,2,3,3.0,0.0,0.0,-1.0,-3.0,-1.0,0
22,1,807.25,54,1175.99,1177.5,4.46,C,left,0.19,52,0.56,17,0.8,12,-999.0,-999,-999,99.0,2,3,1,0.0,0.0,0.0,0.0,0.0,0.0,10
22,1,807.25,55,1182.3,1183.82,4.86,A,left,0.78,9,0.62,15,0.85,7,0.55,29,-999,1.0,1,2,3,3.0,-1.0,-3.0,0.0,0.0,-1.0,101
22,1,807.25,56,1189.02,1190.53,5.94,A,left,0.72,9,0.65,15,0.7,8,0.63,14,-999,31.0,1,3,2,-3.0,-1.0,0.0,0.0,3.0,-1.0,111
22,1,807.25,57,1196.81,1198.33,8.67,A,mid,0.72,9,0.65,15,0.7,8,0.63,14,-999,31.0,2,1,3,-3.0,-1.0,0.0,0.0,3.0,-1.0,100
22,1,807.25,58,1207.33,1208.84,5.98,A,right,0.72,10,0.68,14,0.88,8,0.58,30,-999,2.0,3,1,2,-3.0,0.0,3.0,-1.0,3.0,0.0,110
22,1,807.25,59,1215.17,1216.69,3.82,C,left,0.27,37,0.61,16,0.89,11,-999.0,-999,-999,99.0,3,2,1,0.0,0.0,0.0,0.0,0.0,0.0,1
22,1,807.25,60,1220.84,1222.35,5.96,B,left,0.78,10,0.68,15,0.88,7,0.58,29,-999,1.0,3,1,2,3.0,0.0,3.0,0.0,3.0,-1.0,111
22,1,807.25,61,1228.65,1230.17,5.43,B,mid,0.72,10,0.68,14,0.7,9,0.66,13,-999,32.0,3,2,1,-3.0,0.0,3.0,-1.0,0.0,-1.0,0
22,1,807.25,62,1235.95,1237.47,2.79,C,right,0.27,37,0.47,21,0.86,11,-999.0,-999,-999,99.0,1,2,3,0.0,0.0,0.0,0.0,0.0,0.0,0
22,1,807.25,63,1240.6,1242.11,4.13,B,right,0.29,34,0.42,23,0.72,13,-999.0,-999,-999,99.0,2,3,1,0.0,0.0,0.0,0.0,0.0,0.0,110
22,1,807.25,64,1246.58,1248.1,7.17,B,left,0.72,9,0.68,14,0.7,8,0.66,13,-999,31.0,2,1,3,-3.0,-1.0,3.0,-1.0,-3.0,0.0,101
22,1,807.25,65,1255.61,1257.13,5.48,B,left,0.72,9,0.68,15,0.88,8,0.58,30,-999,2.0,2,1,3,-3.0,-1.0,3.0,0.0,3.0,0.0,111
22,1,807.25,66,1262.94,1264.46,6.23,B,right,0.72,10,0.62,14,0.7,9,0.6,13,-999,32.0,1,3,2,-3.0,0.0,-3.0,-1.0,0.0,0.0,10
22,1,807.25,67,1271.02,1272.54,4.35,A,left,0.72,10,0.62,15,0.7,9,0.6,14,-999,31.0,1,2,3,-3.0,0.0,-3.0,0.0,0.0,-1.0,111
22,1,807.25,68,1277.22,1278.74,3.96,A,right,0.75,10,0.65,14,0.73,9,0.63,13,-999,31.0,3,1,2,0.0,0.0,0.0,-1.0,-3.0,-1.0,111
22,1,807.25,69,1283.03,1284.55,8.51,A,right,0.78,9,0.68,15,0.76,8,0.66,14,-999,31.0,3,2,1,3.0,-1.0,3.0,0.0,0.0,0.0,100
22,1,807.25,70,1293.4,1294.91,4.21,A,right,0.75,9,0.62,15,0.88,7,0.58,29,-999,2.0,3,1,2,0.0,-1.0,-3.0,0.0,3.0,-1.0,0
22,1,807.25,71,1299.46,1300.98,5.12,A,left,0.78,10,0.62,14,0.85,7,0.55,29,-999,1.0,1,3,2,3.0,0.0,-3.0,-1.0,0.0,-1.0,110
22,1,807.25,72,1306.44,1307.96,5.47,C,mid,0.72,10,0.65,15,0.82,7,0.52,29,-999,1.0,3,1,2,-3.0,0.0,0.0,0.0,-3.0,-1.0,110
22,1,807.25,73,1313.77,1315.29,4.39,C,right,0.32,31,0.6,16,0.78,12,-999.0,-999,-999,99.0,2,1,3,0.0,0.0,0.0,0.0,0.0,0.0,110
22,1,807.25,74,1320.02,1321.54,4.51,A,right,0.78,9,0.65,15,0.76,8,0.63,14,-999,32.0,3,2,1,3.0,-1.0,0.0,0.0,-3.0,-1.0,110
22,1,807.25,75,1326.39,1327.9,3.34,A,right,0.72,10,0.62,14,0.85,8,0.55,30,-999,2.0,3,2,1,-3.0,0.0,-3.0,-1.0,0.0,0.0,100
22,Estimation2,1505.22,E1,1505.28,1506.8,3.59,A,mid,0.75,11,0.65,15,0.85,-999,0.55,20,3,,2,1,3,,,,,,,110
22,Estimation2,1505.22,E2,1510.71,1512.23,3.34,B,mid,0.75,8,0.65,15,0.85,-999,0.55,20,1,2.0,1,2,3,,,,,,,0
22,Estimation2,1505.22,E3,1515.91,1517.43,2.82,A,right,0.75,8,0.65,15,0.85,-999,0.55,28,3,,3,1,2,,,,,,,1
22,Estimation2,1505.22,E4,1520.59,1522.11,2.64,B,right,0.75,6,0.65,15,0.85,-999,0.55,28,1,2.0,1,3,2,,,,,,,1
22,Estimation2,1505.22,E5,1525.09,1526.61,2.92,B,right,0.75,6,0.65,15,0.85,-999,0.55,32,3,,1,3,2,,,,,,,0
22,Estimation2,1505.22,E6,1529.87,1531.39,3.87,B,mid,0.75,7,0.65,15,0.85,-999,0.55,32,1,2.0,1,2,3,,,,,,,0
22,Estimation2,1505.22,E7,1535.6,1537.12,2.4,B,left,0.75,7,0.65,15,0.85,-999,0.55,34,3,,3,1,2,,,,,,,101
22,Estimation2,1505.22,E8,1539.85,1541.37,3.6,B,left,0.75,8,0.65,15,0.85,-999,0.55,34,1,2.0,3,1,2,,,,,,,10
22,Estimation2,1505.22,E9,1545.3,1546.82,3.46,A,right,0.75,8,0.65,15,0.85,-999,0.55,35,3,,3,2,1,,,,,,,110
22,Estimation2,1505.22,E10,1550.61,1552.13,3.75,B,left,0.75,8,0.65,15,0.85,4,0.55,35,1,2.0,3,1,2,,,,,,,110
22,Estimation2,1505.22,E11,1556.21,1557.73,2.82,A,left,0.75,8,0.65,15,0.85,4,0.55,35,2,1.0,1,2,3,,,,,,,101
22,Estimation2,1505.22,E12,1560.89,1562.41,2.72,B,left,0.75,8,0.65,15,0.85,5,0.55,35,1,2.0,3,1,2,,,,,,,110
22,Estimation2,1505.22,E13,1565.48,1566.99,4.66,C,mid,0.75,8,0.65,15,0.85,5,0.55,35,2,1.0,1,3,2,,,,,,,101
22,2,1577.91,1,1577.99,1579.51,3.23,B,right,0.72,7,0.68,14,0.85,5,0.55,35,-999,2.0,1,3,2,-3.0,-1.0,3.0,-1.0,0.0,0.0,111
22,2,1577.91,2,1583.09,1584.6,3.68,A,mid,0.72,8,0.62,14,0.85,5,0.55,35,-999,2.0,2,1,3,-3.0,0.0,-3.0,-1.0,0.0,0.0,11
22,2,1577.91,3,1588.62,1590.14,3.64,B,left,0.72,7,0.68,15,0.88,5,0.58,35,-999,2.0,2,1,3,-3.0,-1.0,3.0,0.0,3.0,0.0,100
22,2,1577.91,4,1594.12,1595.63,4.24,B,mid,0.75,7,0.62,15,0.73,6,0.6,14,-999,32.0,3,2,1,0.0,-1.0,-3.0,0.0,-3.0,0.0,0
22,2,1577.91,5,1600.22,1601.73,3.96,B,right,0.75,7,0.68,14,0.73,6,0.66,13,-999,32.0,2,3,1,0.0,-1.0,3.0,-1.0,0.0,0.0,111
22,2,1577.91,6,1606.03,1607.55,5.5,B,mid,0.78,8,0.62,14,0.85,5,0.55,35,-999,2.0,3,2,1,3.0,0.0,-3.0,-1.0,0.0,0.0,0
22,2,1577.91,7,1613.38,1614.89,5.09,A,mid,0.72,8,0.65,15,0.7,7,0.63,14,-999,31.0,2,1,3,-3.0,0.0,0.0,0.0,-3.0,-1.0,1
22,2,1577.91,8,1620.33,1621.84,4.17,B,mid,0.72,7,0.65,15,0.7,6,0.63,14,-999,31.0,3,2,1,-3.0,-1.0,0.0,0.0,3.0,-1.0,10
22,2,1577.91,9,1626.36,1627.87,7.35,B,left,0.75,7,0.62,15,0.88,5,0.58,35,-999,1.0,3,1,2,0.0,-1.0,-3.0,0.0,3.0,0.0,110
22,2,1577.91,10,1635.57,1637.09,2.88,B,left,0.72,8,0.68,15,0.82,5,0.52,35,-999,2.0,3,1,2,-3.0,0.0,3.0,0.0,-3.0,0.0,0
22,2,1577.91,11,1640.32,1641.84,4.15,A,mid,0.75,8,0.65,14,0.73,7,0.63,13,-999,31.0,2,1,3,0.0,0.0,0.0,-1.0,-3.0,-1.0,110
22,2,1577.91,12,1646.33,1647.85,3.5,B,left,0.72,8,0.65,15,0.82,4,0.52,34,-999,2.0,3,1,2,-3.0,0.0,0.0,0.0,-3.0,-1.0,110
22,2,1577.91,13,1651.7,1653.21,4.68,A,left,0.72,8,0.62,15,0.7,7,0.6,14,-999,31.0,1,3,2,-3.0,0.0,-3.0,0.0,0.0,-1.0,0
22,2,1577.91,14,1658.23,1659.75,5.59,A,right,0.75,8,0.65,15,0.73,7,0.63,14,-999,31.0,3,2,1,0.0,0.0,0.0,0.0,0.0,-1.0,1
22,2,1577.91,15,1665.68,1667.19,4.02,C,left,0.27,37,0.47,21,0.86,11,-999.0,-999,-999,99.0,2,3,1,0.0,0.0,0.0,0.0,0.0,0.0,11
22,2,1577.91,16,1671.56,1673.08,5.74,A,left,0.32,31,0.48,20,0.85,11,-999.0,-999,-999,99.0,1,3,2,0.0,0.0,0.0,0.0,0.0,0.0,10
22,2,1577.91,17,1679.16,1680.67,6.26,B,mid,0.75,7,0.65,14,0.73,6,0.63,13,-999,32.0,3,2,1,0.0,-1.0,0.0,-1.0,3.0,0.0,10
22,2,1577.91,18,1687.27,1688.79,5.84,B,left,0.78,7,0.62,15,0.76,6,0.6,14,-999,31.0,3,1,2,3.0,-1.0,-3.0,0.0,0.0,0.0,11
22,2,1577.91,19,1694.97,1696.48,7.56,B,right,0.78,8,0.65,15,0.76,7,0.63,14,-999,32.0,2,3,1,3.0,0.0,0.0,0.0,-3.0,-1.0,101
22,2,1577.91,20,1704.38,1705.9,6.62,B,mid,0.72,8,0.68,14,0.7,7,0.66,13,-999,32.0,3,2,1,-3.0,0.0,3.0,-1.0,0.0,-1.0,10
22,2,1577.91,21,1712.86,1714.38,6.65,B,mid,0.75,8,0.65,15,0.82,4,0.52,34,-999,1.0,3,2,1,0.0,0.0,0.0,0.0,-3.0,-1.0,111
22,2,1577.91,22,1721.36,1722.88,3.11,A,right,0.78,8,0.68,15,0.76,7,0.66,14,-999,31.0,3,1,2,3.0,0.0,3.0,0.0,0.0,0.0,10
22,2,1577.91,23,1726.32,1727.84,4.76,A,mid,0.72,8,0.62,15,0.7,7,0.6,14,-999,32.0,2,3,1,-3.0,0.0,-3.0,0.0,0.0,0.0,100
22,2,1577.91,24,1732.94,1734.46,7.61,A,left,0.72,7,0.65,14,0.7,6,0.63,13,-999,31.0,1,2,3,-3.0,-1.0,0.0,-1.0,3.0,-1.0,11
22,2,1577.91,25,1742.4,1743.92,6.23,A,mid,0.78,7,0.68,15,0.76,6,0.66,14,-999,31.0,2,3,1,3.0,-1.0,3.0,0.0,0.0,0.0,1
22,2,1577.91,26,1750.5,1752.02,5.73,B,right,0.78,7,0.62,14,0.76,6,0.6,13,-999,32.0,1,3,2,3.0,-1.0,-3.0,-1.0,0.0,-1.0,0
22,2,1577.91,27,1758.1,1759.61,6.19,B,left,0.72,8,0.65,15,0.82,4,0.52,34,-999,1.0,3,1,2,-3.0,0.0,0.0,0.0,-3.0,-1.0,100
22,2,1577.91,28,1766.15,1767.66,5.99,B,mid,0.78,8,0.68,15,0.82,5,0.52,35,-999,1.0,1,2,3,3.0,0.0,3.0,0.0,-3.0,0.0,0
22,2,1577.91,29,1773.99,1775.51,6.09,C,right,0.27,37,0.61,16,0.89,11,-999.0,-999,-999,99.0,2,1,3,0.0,0.0,0.0,0.0,0.0,0.0,10
22,2,1577.91,30,1781.94,1783.46,3.73,B,right,0.72,8,0.62,15,0.7,7,0.6,14,-999,32.0,1,3,2,-3.0,0.0,-3.0,0.0,3.0,-1.0,111
22,2,1577.91,31,1787.52,1789.04,7.13,B,mid,0.75,7,0.62,15,0.88,4,0.58,34,-999,2.0,1,2,3,0.0,-1.0,-3.0,0.0,3.0,-1.0,10
22,2,1577.91,32,1796.53,1798.05,4.2,A,right,0.75,8,0.65,14,0.73,7,0.63,13,-999,31.0,3,2,1,0.0,0.0,0.0,-1.0,0.0,0.0,100
22,2,1577.91,33,1802.58,1804.1,3.34,A,left,0.72,7,0.65,15,0.7,6,0.63,14,-999,31.0,1,2,3,-3.0,-1.0,0.0,0.0,3.0,-1.0,101
22,2,1577.91,34,1807.78,1809.3,5.06,C,mid,0.32,31,0.6,16,0.78,12,-999.0,-999,-999,99.0,1,3,2,0.0,0.0,0.0,0.0,0.0,0.0,11
22,2,1577.91,35,1814.7,1816.21,3.02,C,mid,0.19,52,0.56,17,0.8,12,-999.0,-999,-999,99.0,1,3,2,0.0,0.0,0.0,0.0,0.0,0.0,11
22,2,1577.91,36,1819.58,1821.09,7.28,A,right,0.75,7,0.68,15,0.88,5,0.58,35,-999,1.0,3,1,2,0.0,-1.0,3.0,0.0,3.0,0.0,111
22,2,1577.91,37,1828.72,1830.24,5.21,B,right,0.78,7,0.62,15,0.76,6,0.6,14,-999,32.0,1,3,2,3.0,-1.0,-3.0,0.0,-3.0,-1.0,111
22,2,1577.91,38,1879.64,1881.16,5.81,B,left,0.31,32,0.38,26,0.85,11,-999.0,-999,-999,99.0,2,1,3,0.0,0.0,0.0,0.0,0.0,0.0,10
22,2,1577.91,39,1887.31,1888.82,4.34,B,mid,0.72,7,0.62,15,0.7,6,0.6,14,-999,32.0,1,2,3,-3.0,-1.0,-3.0,0.0,-3.0,-1.0,0
22,2,1577.91,40,1893.5,1895.02,3.84,B,left,0.78,8,0.65,14,0.82,4,0.52,34,-999,2.0,3,1,2,3.0,0.0,0.0,-1.0,-3.0,-1.0,0
22,2,1577.91,41,1899.2,1900.72,7.03,C,right,0.75,8,0.62,14,0.88,5,0.58,35,-999,2.0,1,2,3,0.0,0.0,-3.0,-1.0,3.0,0.0,100
22,2,1577.91,42,1908.1,1909.62,6.46,A,mid,0.78,8,0.68,15,0.88,4,0.58,34,-999,1.0,2,1,3,3.0,0.0,3.0,0.0,3.0,-1.0,101
22,2,1577.91,43,1916.41,1917.93,4.73,A,left,0.78,7,0.62,15,0.85,4,0.55,34,-999,1.0,1,2,3,3.0,-1.0,-3.0,0.0,0.0,-1.0,100
22,2,1577.91,44,1922.99,1924.51,5.73,B,right,0.72,8,0.62,14,0.85,5,0.55,35,-999,2.0,2,3,1,-3.0,0.0,-3.0,-1.0,0.0,0.0,11
22,2,1577.91,45,1930.57,1932.09,4.73,A,right,0.78,7,0.68,15,0.88,5,0.58,35,-999,1.0,3,2,1,3.0,-1.0,3.0,0.0,3.0,0.0,11
22,2,1577.91,46,1937.16,1938.67,6.04,A,mid,0.75,7,0.68,14,0.73,6,0.66,13,-999,31.0,2,1,3,0.0,-1.0,3.0,-1.0,0.0,-1.0,10
22,2,1577.91,47,1945.05,1946.57,4.57,B,right,0.72,7,0.68,14,0.7,6,0.66,13,-999,31.0,1,3,2,-3.0,-1.0,3.0,-1.0,-3.0,0.0,10
22,2,1577.91,48,1951.48,1953.0,5.56,A,mid,0.78,8,0.62,15,0.76,7,0.6,14,-999,32.0,2,1,3,3.0,0.0,-3.0,0.0,3.0,0.0,110
22,2,1577.91,49,1958.9,1960.42,5.18,B,right,0.78,7,0.68,15,0.85,4,0.55,34,-999,1.0,1,3,2,3.0,-1.0,3.0,0.0,0.0,-1.0,0
22,2,1577.91,50,1965.93,1967.45,6.15,C,right,0.72,7,0.65,15,0.88,4,0.58,34,-999,2.0,1,2,3,-3.0,-1.0,0.0,0.0,3.0,-1.0,110
22,2,1577.91,51,1973.94,1975.46,5.51,C,left,0.29,34,0.42,23,0.72,13,-999.0,-999,-999,99.0,2,3,1,0.0,0.0,0.0,0.0,0.0,0.0,111
22,2,1577.91,52,1981.31,1982.83,7.18,B,left,0.78,7,0.65,15,0.76,6,0.63,14,-999,32.0,2,1,3,3.0,-1.0,0.0,0.0,-3.0,-1.0,101
22,2,1577.91,53,1990.34,1991.86,7.02,A,right,0.78,8,0.62,14,0.76,7,0.6,13,-999,31.0,3,2,1,3.0,0.0,-3.0,-1.0,-3.0,0.0,100
22,2,1577.91,54,1999.22,2000.74,5.98,B,mid,0.72,8,0.68,15,0.82,4,0.52,34,-999,1.0,1,2,3,-3.0,0.0,3.0,0.0,-3.0,-1.0,111
22,2,1577.91,55,2007.05,2008.57,5.69,B,mid,0.72,7,0.62,14,0.88,5,0.58,35,-999,2.0,1,2,3,-3.0,-1.0,-3.0,-1.0,3.0,0.0,1
22,2,1577.91,56,2014.6,2016.11,8.18,A,right,0.75,8,0.65,14,0.85,4,0.55,34,-999,2.0,3,2,1,0.0,0.0,0.0,-1.0,0.0,-1.0,0
22,2,1577.91,57,2024.63,2026.14,4.93,B,right,0.78,8,0.65,15,0.76,7,0.63,14,-999,32.0,2,3,1,3.0,0.0,0.0,0.0,0.0,0.0,10
22,2,1577.91,58,2031.41,2032.93,3.06,C,mid,0.24,41,0.37,27,0.76,13,-999.0,-999,-999,99.0,3,1,2,0.0,0.0,0.0,0.0,0.0,0.0,111
22,2,1577.91,59,2036.32,2037.84,4.2,A,right,0.78,8,0.65,14,0.82,4,0.52,34,-999,1.0,3,2,1,3.0,0.0,0.0,-1.0,-3.0,-1.0,110
22,2,1577.91,60,2042.39,2043.9,4.4,B,mid,0.75,7,0.68,14,0.85,4,0.55,34,-999,2.0,1,2,3,0.0,-1.0,3.0,-1.0,0.0,-1.0,100
22,2,1577.91,61,2048.64,2050.15,5.61,A,left,0.75,8,0.65,15,0.73,7,0.63,14,-999,31.0,1,2,3,0.0,0.0,0.0,0.0,0.0,0.0,0
22,2,1577.91,62,2056.1,2057.62,5.37,B,mid,0.72,8,0.62,14,0.7,7,0.6,13,-999,32.0,1,2,3,-3.0,0.0,-3.0,-1.0,0.0,0.0,10
22,2,1577.91,63,2063.33,2064.85,7.84,B,left,0.72,7,0.65,15,0.85,5,0.55,35,-999,2.0,3,1,2,-3.0,-1.0,0.0,0.0,0.0,0.0,0
22,2,1577.91,64,2073.03,2074.55,4.83,A,mid,0.78,8,0.62,14,0.85,4,0.55,34,-999,1.0,2,3,1,3.0,0.0,-3.0,-1.0,0.0,-1.0,110
22,2,1577.91,65,2079.71,2081.23,2.54,C,left,0.16,62,0.46,21,0.87,11,-999.0,-999,-999,99.0,3,2,1,0.0,0.0,0.0,0.0,0.0,0.0,10
22,2,1577.91,66,2084.11,2085.62,7.79,A,right,0.75,8,0.65,15,0.85,5,0.55,35,-999,1.0,3,2,1,0.0,0.0,0.0,0.0,0.0,0.0,110
22,2,1577.91,67,2093.76,2095.27,6.52,B,left,0.72,8,0.68,14,0.88,5,0.58,35,-999,2.0,3,1,2,-3.0,0.0,3.0,-1.0,3.0,0.0,10
22,2,1577.91,68,2102.14,2103.65,6.18,C,right,0.78,8,0.65,14,0.82,5,0.52,35,-999,1.0,2,1,3,3.0,0.0,0.0,-1.0,-3.0,0.0,1
22,2,1577.91,69,2110.18,2111.7,5.02,C,left,0.19,52,0.59,16,0.81,12,-999.0,-999,-999,99.0,3,2,1,0.0,0.0,0.0,0.0,0.0,0.0,110
22,2,1577.91,70,2117.07,2118.58,5.46,A,left,0.75,7,0.65,15,0.73,6,0.63,14,-999,31.0,1,3,2,0.0,-1.0,0.0,0.0,3.0,-1.0,110
22,2,1577.91,71,2124.38,2125.89,3.56,B,mid,0.72,8,0.65,14,0.7,7,0.63,13,-999,32.0,3,2,1,-3.0,0.0,0.0,-1.0,3.0,0.0,110
22,2,1577.91,72,2129.79,2131.31,6.88,B,mid,0.72,8,0.68,15,0.82,4,0.52,34,-999,1.0,3,2,1,-3.0,0.0,3.0,0.0,-3.0,-1.0,11
22,2,1577.91,73,2138.52,2140.04,4.77,A,left,0.75,8,0.62,15,0.88,4,0.58,34,-999,1.0,1,3,2,0.0,0.0,-3.0,0.0,3.0,-1.0,111
22,2,1577.91,74,2145.16,2146.67,3.47,C,mid,0.28,35,0.67,14,0.78,12,-999.0,-999,-999,99.0,3,1,2,0.0,0.0,0.0,0.0,0.0,0.0,100
22,2,1577.91,75,2150.49,2152.0,4.49,A,right,0.78,7,0.68,14,0.76,6,0.66,13,-999,32.0,3,2,1,3.0,-1.0,3.0,-1.0,3.0,-1.0,11
22,Estimation3,2290.32,E1,2290.39,2291.91,2.55,A,left,0.75,11,0.65,15,0.85,-999,0.55,20,3,,1,2,3,,,,,,,110
22,Estimation3,2290.32,E2,2294.79,2296.31,3.08,B,mid,0.75,8,0.65,15,0.85,-999,0.55,20,1,2.0,1,2,3,,,,,,,0
22,Estimation3,2290.32,E3,2299.72,2301.24,3.44,B,mid,0.75,8,0.65,15,0.85,-999,0.55,28,3,,3,2,1,,,,,,,111
22,Estimation3,2290.32,E4,2305.02,2306.54,3.32,B,left,0.75,10,0.65,15,0.85,-999,0.55,28,1,2.0,3,1,2,,,,,,,101
22,Estimation3,2290.32,E5,2310.2,2311.72,2.85,A,left,0.75,10,0.65,15,0.85,-999,0.55,32,3,,1,2,3,,,,,,,11
22,Estimation3,2290.32,E6,2314.92,2316.43,3.63,C,left,0.75,9,0.65,15,0.85,-999,0.55,32,1,2.0,3,2,1,,,,,,,0
22,Estimation3,2290.32,E7,2320.4,2321.92,3.1,A,left,0.75,9,0.65,15,0.85,-999,0.55,30,3,,1,3,2,,,,,,,0
22,Estimation3,2290.32,E8,2325.36,2326.88,3.82,B,right,0.75,9,0.65,15,0.85,5,0.55,30,1,2.0,2,3,1,,,,,,,10
22,Estimation3,2290.32,E9,2331.05,2332.56,2.71,A,mid,0.75,9,0.65,15,0.85,5,0.55,31,2,1.0,2,1,3,,,,,,,11
22,Estimation3,2290.32,E10,2335.61,2337.13,3.81,B,right,0.75,9,0.65,15,0.85,6,0.55,31,1,2.0,1,3,2,,,,,,,100
22,Estimation3,2290.32,E11,2341.28,2342.79,4.5,A,right,0.75,9,0.65,15,0.85,6,0.55,32,2,1.0,3,2,1,,,,,,,101
22,Estimation3,2290.32,E12,2347.62,2349.14,3.73,B,mid,0.75,9,0.65,15,0.85,7,0.55,32,1,2.0,1,2,3,,,,,,,101
22,Estimation3,2290.32,E13,2353.22,2354.74,2.74,A,right,0.75,9,0.65,15,0.85,7,0.55,32,2,1.0,3,2,1,,,,,,,10
22,3,2367.12,1,2367.18,2368.7,4.18,C,right,0.16,62,0.46,21,0.87,11,-999.0,-999,-999,99.0,1,2,3,0.0,0.0,0.0,0.0,0.0,0.0,11
22,3,2367.12,2,2373.22,2374.73,3.52,C,mid,0.19,52,0.56,17,0.8,12,-999.0,-999,-999,99.0,3,1,2,0.0,0.0,0.0,0.0,0.0,0.0,111
22,3,2367.12,3,2378.6,2380.11,3.62,B,right,0.72,9,0.62,14,0.85,7,0.55,32,-999,2.0,1,3,2,-3.0,0.0,-3.0,-1.0,0.0,0.0,1
22,3,2367.12,4,2384.08,2385.59,4.52,A,right,0.78,9,0.62,14,0.85,6,0.55,31,-999,1.0,3,1,2,3.0,0.0,-3.0,-1.0,0.0,-1.0,10
22,3,2367.12,5,2390.46,2391.98,4.51,A,left,0.75,9,0.62,15,0.88,6,0.58,31,-999,1.0,1,2,3,0.0,0.0,-3.0,0.0,3.0,-1.0,11
22,3,2367.12,6,2396.82,2398.34,4.44,A,left,0.78,9,0.68,15,0.88,6,0.58,31,-999,1.0,1,3,2,3.0,0.0,3.0,0.0,3.0,-1.0,10
22,3,2367.12,7,2403.12,2404.64,1.98,C,mid,0.29,34,0.42,23,0.72,13,-999.0,-999,-999,99.0,3,1,2,0.0,0.0,0.0,0.0,0.0,0.0,1
22,3,2367.12,8,2406.95,2408.47,3.15,A,mid,0.78,9,0.62,14,0.85,7,0.55,32,-999,2.0,2,3,1,3.0,0.0,-3.0,-1.0,0.0,0.0,101
22,3,2367.12,9,2411.97,2413.49,3.03,B,mid,0.78,8,0.65,15,0.76,7,0.63,14,-999,32.0,3,2,1,3.0,-1.0,0.0,0.0,-3.0,-1.0,110
22,3,2367.12,10,2416.87,2418.38,4.17,B,mid,0.72,9,0.65,15,0.82,6,0.52,31,-999,1.0,3,2,1,-3.0,0.0,0.0,0.0,-3.0,-1.0,111
22,3,2367.12,11,2422.9,2424.42,3.82,B,mid,0.72,9,0.68,14,0.88,7,0.58,32,-999,2.0,1,2,3,-3.0,0.0,3.0,-1.0,3.0,0.0,1
22,3,2367.12,12,2428.58,2430.1,6.23,B,mid,0.78,8,0.68,15,0.88,7,0.58,32,-999,1.0,1,2,3,3.0,-1.0,3.0,0.0,3.0,0.0,0
22,3,2367.12,13,2436.66,2438.18,4.77,A,mid,0.75,9,0.65,15,0.73,8,0.63,14,-999,31.0,2,3,1,0.0,0.0,0.0,0.0,0.0,0.0,111
22,3,2367.12,14,2443.29,2444.81,3.54,B,right,0.75,8,0.62,15,0.73,7,0.6,14,-999,32.0,1,3,2,0.0,-1.0,-3.0,0.0,-3.0,0.0,11
22,3,2367.12,15,2448.69,2450.21,7.02,B,left,0.72,9,0.62,15,0.7,8,0.6,14,-999,32.0,2,1,3,-3.0,0.0,-3.0,0.0,3.0,-1.0,11
22,3,2367.12,16,2457.57,2459.09,5.12,C,right,0.32,31,0.6,16,0.78,12,-999.0,-999,-999,99.0,1,2,3,0.0,0.0,0.0,0.0,0.0,0.0,110
22,3,2367.12,17,2464.55,2466.07,3.56,A,right,0.75,8,0.68,15,0.88,7,0.58,32,-999,1.0,3,1,2,0.0,-1.0,3.0,0.0,3.0,0.0,10
22,3,2367.12,18,2469.97,2471.48,5.02,A,mid,0.78,9,0.65,14,0.82,6,0.52,31,-999,1.0,2,1,3,3.0,0.0,0.0,-1.0,-3.0,-1.0,100
22,3,2367.12,19,2476.85,2478.36,7.37,A,left,0.72,8,0.62,14,0.88,7,0.58,32,-999,2.0,1,2,3,-3.0,-1.0,-3.0,-1.0,3.0,0.0,11
22,3,2367.12,20,2486.08,2487.6,3.66,C,mid,0.27,37,0.61,16,0.89,11,-999.0,-999,-999,99.0,1,3,2,0.0,0.0,0.0,0.0,0.0,0.0,111
22,3,2367.12,21,2491.59,2493.11,3.8,C,left,0.19,52,0.59,16,0.81,12,-999.0,-999,-999,99.0,2,3,1,0.0,0.0,0.0,0.0,0.0,0.0,11
22,3,2367.12,22,2497.26,2498.77,3.15,C,left,0.32,31,0.48,20,0.85,11,-999.0,-999,-999,99.0,2,3,1,0.0,0.0,0.0,0.0,0.0,0.0,10
22,3,2367.12,23,2502.27,2503.79,3.09,A,right,0.75,9,0.65,14,0.73,8,0.63,13,-999,31.0,3,2,1,0.0,0.0,0.0,-1.0,0.0,0.0,101
22,3,2367.12,24,2507.22,2508.74,4.29,C,left,0.28,35,0.67,14,0.78,12,-999.0,-999,-999,99.0,3,2,1,0.0,0.0,0.0,0.0,0.0,0.0,111
22,3,2367.12,25,2513.37,2514.89,5.43,A,right,0.78,9,0.65,15,0.76,8,0.63,14,-999,32.0,3,1,2,3.0,0.0,0.0,0.0,-3.0,-1.0,10
22,3,2367.12,26,2520.67,2522.18,5.57,B,left,0.75,8,0.65,14,0.73,7,0.63,13,-999,32.0,2,1,3,0.0,-1.0,0.0,-1.0,3.0,0.0,110
22,3,2367.12,27,2528.1,2529.61,2.22,C,mid,0.24,41,0.37,27,0.76,13,-999.0,-999,-999,99.0,1,3,2,0.0,0.0,0.0,0.0,0.0,0.0,0
22,3,2367.12,28,2532.18,2533.7,6.46,A,mid,0.75,8,0.62,15,0.88,6,0.58,31,-999,2.0,2,3,1,0.0,-1.0,-3.0,0.0,3.0,-1.0,11
22,3,2367.12,29,2540.49,2542.01,4.34,B,mid,0.78,8,0.62,14,0.76,7,0.6,13,-999,32.0,1,2,3,3.0,-1.0,-3.0,-1.0,0.0,-1.0,11
22,3,2367.12,30,2546.69,2548.21,5.36,B,left,0.72,9,0.68,14,0.7,8,0.66,13,-999,32.0,3,1,2,-3.0,0.0,3.0,-1.0,0.0,-1.0,110
22,3,2367.12,31,2553.91,2555.42,4.57,B,left,0.78,9,0.62,15,0.76,8,0.6,14,-999,32.0,3,1,2,3.0,0.0,-3.0,0.0,3.0,0.0,10
22,3,2367.12,32,2560.34,2561.85,5.58,B,right,0.72,8,0.65,15,0.7,7,0.63,14,-999,31.0,1,3,2,-3.0,-1.0,0.0,0.0,3.0,-1.0,1
22,3,2367.12,33,2567.79,2569.3,6.19,B,left,0.72,9,0.62,14,0.7,8,0.6,13,-999,32.0,2,1,3,-3.0,0.0,-3.0,-1.0,0.0,0.0,11
22,3,2367.12,34,2575.83,2577.35,3.03,C,mid,0.27,37,0.47,21,0.86,11,-999.0,-999,-999,99.0,1,3,2,0.0,0.0,0.0,0.0,0.0,0.0,110
22,3,2367.12,35,2580.71,2582.23,3.61,A,mid,0.72,9,0.62,15,0.7,8,0.6,14,-999,32.0,2,1,3,-3.0,0.0,-3.0,0.0,0.0,0.0,100
22,3,2367.12,36,2586.18,2587.7,4.64,B,right,0.72,9,0.65,14,0.7,8,0.63,13,-999,32.0,2,3,1,-3.0,0.0,0.0,-1.0,3.0,0.0,10
22,3,2367.12,37,2592.68,2594.19,4.51,A,right,0.75,8,0.65,15,0.73,7,0.63,14,-999,31.0,3,2,1,0.0,-1.0,0.0,0.0,3.0,-1.0,1
22,3,2367.12,38,2626.8,2628.32,2.24,A,mid,0.78,8,0.62,15,0.76,7,0.6,14,-999,32.0,2,1,3,3.0,-1.0,-3.0,0.0,-3.0,-1.0,10
22,3,2367.12,39,2630.9,2632.41,3.52,B,left,0.78,8,0.68,14,0.76,7,0.66,13,-999,32.0,3,1,2,3.0,-1.0,3.0,-1.0,3.0,-1.0,100
22,3,2367.12,40,2636.28,2637.8,4.63,C,right,0.78,8,0.62,15,0.85,6,0.55,31,-999,1.0,1,2,3,3.0,-1.0,-3.0,0.0,0.0,-1.0,100
22,3,2367.12,41,2642.76,2644.28,4.01,A,mid,0.72,8,0.65,15,0.7,7,0.63,14,-999,31.0,2,3,1,-3.0,-1.0,0.0,0.0,3.0,-1.0,0
22,3,2367.12,42,2648.63,2650.14,4.62,A,right,0.72,8,0.68,14,0.7,7,0.66,13,-999,31.0,3,2,1,-3.0,-1.0,3.0,-1.0,-3.0,0.0,11
22,3,2367.12,43,2655.11,2656.62,4.18,B,right,0.72,9,0.62,15,0.7,8,0.6,14,-999,31.0,1,3,2,-3.0,0.0,-3.0,0.0,0.0,-1.0,0
22,3,2367.12,44,2661.14,2662.66,4.65,A,right,0.78,9,0.65,15,0.76,8,0.63,14,-999,32.0,3,1,2,3.0,0.0,0.0,0.0,0.0,0.0,110
22,3,2367.12,45,2667.65,2669.17,7.21,B,right,0.72,8,0.68,15,0.88,7,0.58,32,-999,2.0,1,3,2,-3.0,-1.0,3.0,0.0,3.0,0.0,100
22,3,2367.12,46,2676.72,2678.23,6.98,B,right,0.75,8,0.68,14,0.85,6,0.55,31,-999,2.0,1,3,2,0.0,-1.0,3.0,-1.0,0.0,-1.0,111
22,3,2367.12,47,2685.55,2687.06,3.46,B,right,0.78,9,0.65,14,0.82,6,0.52,31,-999,2.0,2,3,1,3.0,0.0,0.0,-1.0,-3.0,-1.0,111
22,3,2367.12,48,2690.86,2692.38,4.24,C,left,0.75,9,0.65,15,0.85,7,0.55,32,-999,1.0,3,2,1,0.0,0.0,0.0,0.0,0.0,0.0,101
22,3,2367.12,49,2696.96,2698.48,4.56,A,right,0.72,9,0.68,15,0.82,6,0.52,31,-999,1.0,3,2,1,-3.0,0.0,3.0,0.0,-3.0,-1.0,1
22,3,2367.12,50,2703.38,2704.89,2.45,A,right,0.75,9,0.65,15,0.73,8,0.63,14,-999,31.0,3,1,2,0.0,0.0,0.0,0.0,0.0,-1.0,100
22,3,2367.12,51,2707.67,2709.19,4.09,A,mid,0.78,8,0.62,15,0.76,7,0.6,14,-999,31.0,2,1,3,3.0,-1.0,-3.0,0.0,0.0,0.0,0
22,3,2367.12,52,2713.62,2715.14,5.12,B,right,0.78,9,0.68,15,0.82,7,0.52,32,-999,1.0,2,3,1,3.0,0.0,3.0,0.0,-3.0,0.0,111
22,3,2367.12,53,2720.6,2722.12,3.33,A,right,0.72,8,0.65,14,0.7,7,0.63,13,-999,31.0,3,2,1,-3.0,-1.0,0.0,-1.0,3.0,-1.0,111
22,3,2367.12,54,2725.78,2727.3,3.98,B,left,0.72,9,0.68,15,0.82,7,0.52,32,-999,2.0,2,1,3,-3.0,0.0,3.0,0.0,-3.0,0.0,101
22,3,2367.12,55,2731.62,2733.13,2.89,A,mid,0.75,8,0.68,14,0.73,7,0.66,13,-999,31.0,2,3,1,0.0,-1.0,3.0,-1.0,0.0,-1.0,101
22,3,2367.12,56,2736.36,2737.88,4.55,C,right,0.78,8,0.68,15,0.85,6,0.55,31,-999,1.0,1,2,3,3.0,-1.0,3.0,0.0,0.0,-1.0,111
22,3,2367.12,57,2742.78,2744.29,5.91,C,mid,0.75,8,0.62,15,0.88,7,0.58,32,-999,1.0,3,1,2,0.0,-1.0,-3.0,0.0,3.0,0.0,100
22,3,2367.12,58,2750.54,2752.06,4.4,A,left,0.75,9,0.65,14,0.73,8,0.63,13,-999,31.0,1,3,2,0.0,0.0,0.0,-1.0,-3.0,-1.0,101
22,3,2367.12,59,2756.79,2758.31,5.98,B,right,0.72,8,0.68,14,0.85,7,0.55,32,-999,2.0,1,3,2,-3.0,-1.0,3.0,-1.0,0.0,0.0,100
22,3,2367.12,60,2764.64,2766.15,3.14,A,mid,0.78,9,0.68,15,0.76,8,0.66,14,-999,31.0,2,3,1,3.0,0.0,3.0,0.0,0.0,0.0,101
22,3,2367.12,61,2769.64,2771.15,5.57,B,right,0.72,8,0.62,15,0.7,7,0.6,14,-999,32.0,1,3,2,-3.0,-1.0,-3.0,0.0,-3.0,-1.0,111
22,3,2367.12,62,2777.07,2778.58,4.97,B,right,0.72,9,0.65,15,0.82,6,0.52,31,-999,2.0,2,3,1,-3.0,0.0,0.0,0.0,-3.0,-1.0,10
22,3,2367.12,63,2783.9,2785.41,6.45,B,mid,0.75,9,0.65,14,0.85,6,0.55,31,-999,2.0,3,2,1,0.0,0.0,0.0,-1.0,0.0,-1.0,0
22,3,2367.12,64,2792.21,2793.73,2.21,C,left,0.31,32,0.38,26,0.85,11,-999.0,-999,-999,99.0,2,3,1,0.0,0.0,0.0,0.0,0.0,0.0,111
22,3,2367.12,65,2796.28,2797.79,5.26,B,right,0.72,9,0.68,15,0.82,6,0.52,31,-999,1.0,2,3,1,-3.0,0.0,3.0,0.0,-3.0,-1.0,10
22,3,2367.12,66,2803.39,2804.91,4.96,B,right,0.75,8,0.68,14,0.73,7,0.66,13,-999,32.0,1,3,2,0.0,-1.0,3.0,-1.0,0.0,0.0,11
22,3,2367.12,67,2810.21,2811.72,4.69,A,left,0.72,9,0.65,15,0.7,8,0.63,14,-999,31.0,1,3,2,-3.0,0.0,0.0,0.0,-3.0,-1.0,0
22,3,2367.12,68,2816.76,2818.27,3.23,A,mid,0.75,9,0.62,14,0.88,7,0.58,32,-999,2.0,2,1,3,0.0,0.0,-3.0,-1.0,3.0,0.0,110
22,3,2367.12,69,2821.85,2823.37,5.5,A,mid,0.75,9,0.65,15,0.82,6,0.52,31,-999,1.0,2,1,3,0.0,0.0,0.0,0.0,-3.0,-1.0,111
22,3,2367.12,70,2829.22,2830.73,2.55,A,mid,0.78,8,0.68,15,0.76,7,0.66,14,-999,31.0,2,1,3,3.0,-1.0,3.0,0.0,0.0,0.0,111
22,3,2367.12,71,2833.62,2835.13,3.25,A,right,0.78,9,0.65,14,0.82,7,0.52,32,-999,1.0,3,1,2,3.0,0.0,0.0,-1.0,-3.0,0.0,0
22,3,2367.12,72,2838.73,2840.25,3.87,B,right,0.72,9,0.62,14,0.85,7,0.55,32,-999,2.0,2,3,1,-3.0,0.0,-3.0,-1.0,0.0,0.0,10
22,3,2367.12,73,2844.46,2845.98,3.56,B,mid,0.72,8,0.65,15,0.85,7,0.55,32,-999,2.0,3,2,1,-3.0,-1.0,0.0,0.0,0.0,0.0,11
22,3,2367.12,74,2849.88,2851.39,3.01,A,left,0.78,9,0.62,14,0.76,8,0.6,13,-999,31.0,1,2,3,3.0,0.0,-3.0,-1.0,-3.0,0.0,1
22,3,2367.12,75,2854.74,2856.26,4.27,B,left,0.72,8,0.65,15,0.88,6,0.58,31,-999,2.0,2,1,3,-3.0,-1.0,0.0,0.0,3.0,-1.0,0
