subject,block,block_onset,trial,fixation_cross_onset,trial_onset,rt,choice,key,pA,mA,pB,mB,pCA,mCA,pCB,mCB,missing,condition,position_A,position_B,position_C,noise_Ap,noise_Am,noise_Bp,noise_Bm,noise_Cp,noise_Cm,attribute_positions
11,Practice,481.0,P1,481.03,482.55,5.63,A,right,0.78,7,0.62,17,0.85,3,0.55,24,-999,2.0,3,1,2,3.0,-2.0,-3.0,2.0,0.0,-1.0,1
11,Practice,481.0,P2,488.53,490.05,2.57,B,mid,0.72,7,0.62,16,0.88,5,0.58,26,-999,2.0,1,2,3,-3.0,-2.0,-3.0,1.0,3.0,1.0,10
11,Practice,481.0,P3,492.96,494.48,1.1,C,left,0.75,11,0.68,13,0.85,4,0.55,25,-999,1.0,2,3,1,0.0,2.0,3.0,-2.0,0.0,0.0,110
11,Practice,481.0,P4,495.94,497.46,2.75,A,right,0.75,9,0.65,15,0.88,5,0.58,26,-999,1.0,3,1,2,0.0,0.0,0.0,0.0,3.0,1.0,100
11,Practice,481.0,P5,500.54,502.06,3.75,A,left,0.72,11,0.62,13,0.85,6,0.55,27,-999,1.0,1,3,2,-3.0,2.0,-3.0,-2.0,0.0,2.0,101
11,Practice,481.0,P6,506.14,507.66,3.16,A,mid,0.78,7,0.62,13,0.82,6,0.52,27,-999,2.0,2,3,1,3.0,-2.0,-3.0,-2.0,-3.0,2.0,110
11,Practice,481.0,P7,511.16,512.67,3.98,C,right,0.75,7,0.65,17,0.85,5,0.55,26,-999,2.0,2,1,3,0.0,-2.0,0.0,2.0,0.0,1.0,111
11,Practice,481.0,P8,516.99,518.5,4.79,B,left,0.72,8,0.68,15,0.82,6,0.52,27,-999,2.0,3,1,2,-3.0,-1.0,3.0,0.0,-3.0,2.0,110
11,Practice,481.0,P9,523.63,525.15,3.49,C,mid,0.78,8,0.62,16,0.88,5,0.58,26,-999,1.0,3,1,2,3.0,-1.0,-3.0,1.0,3.0,1.0,1
11,Practice,481.0,P10,528.98,530.5,1.45,A,left,0.75,10,0.65,16,0.82,2,0.52,23,-999,2.0,1,2,3,0.0,1.0,0.0,1.0,-3.0,-2.0,101
11,Practice,481.0,P11,532.28,533.8,6.0,A,mid,0.72,8,0.65,15,0.85,5,0.55,26,-999,2.0,2,3,1,-3.0,-1.0,0.0,0.0,0.0,1.0,0
11,Practice,481.0,P12,540.15,541.66,6.96,A,mid,0.72,8,0.68,15,0.85,5,0.55,26,-999,1.0,2,3,1,-3.0,-1.0,3.0,0.0,0.0,1.0,101
11,Practice,481.0,P13,548.96,550.48,3.24,C,right,0.78,11,0.68,16,0.88,5,0.58,26,-999,1.0,2,1,3,3.0,2.0,3.0,1.0,3.0,1.0,111
11,Practice,481.0,P14,554.06,555.57,1.37,B,mid,0.72,11,0.62,17,0.82,3,0.52,24,-999,2.0,3,2,1,-3.0,2.0,-3.0,2.0,-3.0,-1.0,0
11,Practice,481.0,P15,557.29,558.81,3.36,A,mid,0.78,7,0.68,14,0.88,5,0.58,26,-999,2.0,2,3,1,3.0,-2.0,3.0,-1.0,3.0,1.0,10
11,Practice,481.0,P16,562.51,564.02,3.47,B,left,0.78,7,0.65,13,0.82,2,0.52,23,-999,2.0,2,1,3,3.0,-2.0,0.0,-2.0,-3.0,-2.0,1
11,Practice,481.0,P17,567.82,569.34,5.54,A,right,0.72,10,0.65,13,0.82,5,0.52,26,-999,2.0,3,2,1,-3.0,1.0,0.0,-2.0,-3.0,1.0,110
11,Practice,481.0,P18,575.22,576.73,2.9,B,left,0.78,7,0.68,13,0.88,2,0.58,23,-999,2.0,3,1,2,3.0,-2.0,3.0,-2.0,3.0,-2.0,10
11,Practice,481.0,P19,579.97,581.48,1.83,A,right,0.78,11,0.62,15,0.85,4,0.55,25,-999,1.0,3,1,2,3.0,2.0,-3.0,0.0,0.0,0.0,110
11,Practice,481.0,P20,583.65,585.16,4.03,C,mid,0.72,7,0.65,14,0.88,4,0.58,25,-999,1.0,1,3,2,-3.0,-2.0,0.0,-1.0,3.0,0.0,11
11,Practice,481.0,P21,589.53,591.05,2.39,A,right,0.78,9,0.65,16,0.85,2,0.55,23,-999,1.0,3,1,2,3.0,0.0,0.0,1.0,0.0,-2.0,0
11,Practice,481.0,P22,593.78,595.29,6.11,B,right,0.72,9,0.62,15,0.85,2,0.55,23,-999,1.0,1,3,2,-3.0,0.0,-3.0,0.0,0.0,-2.0,10
11,Practice,481.0,P23,601.74,603.26,2.06,B,left,0.72,7,0.65,13,0.88,3,0.58,24,-999,1.0,3,1,2,-3.0,-2.0,0.0,-2.0,3.0,-1.0,100
11,Practice,481.0,P24,605.66,607.17,4.79,C,right,0.78,7,0.65,13,0.82,5,0.52,26,-999,2.0,2,1,3,3.0,-2.0,0.0,-2.0,-3.0,1.0,10
11,Practice,481.0,P25,612.31,613.82,5.79,B,right,0.78,10,0.68,13,0.85,4,0.55,25,-999,1.0,2,3,1,3.0,1.0,3.0,-2.0,0.0,0.0,111
11,Estimation1,736.89,E1,736.96,738.48,5.81,A,mid,0.75,11,0.65,15,0.85,-999,0.55,20,3,,2,1,3,,,,,,,11
11,Estimation1,736.89,E2,744.63,746.15,6.36,B,right,0.75,8,0.65,15,0.85,-999,0.55,20,1,2.0,1,3,2,,,,,,,101
11,Estimation1,736.89,E3,752.84,754.36,6.35,B,left,0.75,8,0.65,15,0.85,-999,0.55,28,3,,3,1,2,,,,,,,100
11,Estimation1,736.89,E4,761.06,762.57,2.9,B,right,0.75,10,0.65,15,0.85,-999,0.55,28,1,2.0,2,3,1,,,,,,,101
11,Estimation1,736.89,E5,765.81,767.32,8.64,A,left,0.75,10,0.65,15,0.85,-999,0.55,32,3,,1,2,3,,,,,,,1
11,Estimation1,736.89,E6,776.3,777.82,10.09,C,right,0.75,9,0.65,15,0.85,-999,0.55,32,1,2.0,2,1,3,,,,,,,101
11,Estimation1,736.89,E7,788.25,789.76,9.54,A,left,0.75,9,0.65,15,0.85,-999,0.55,30,3,,1,2,3,,,,,,,100
11,Estimation1,736.89,E8,799.64,801.16,2.28,B,right,0.75,9,0.65,15,0.85,5,0.55,30,1,2.0,2,3,1,,,,,,,100
11,Estimation1,736.89,E9,803.78,805.29,7.37,A,right,0.75,9,0.65,15,0.85,5,0.55,31,2,1.0,3,2,1,,,,,,,100
11,Estimation1,736.89,E10,813.01,814.52,7.05,C,mid,0.75,9,0.65,15,0.85,6,0.55,31,1,2.0,1,3,2,,,,,,,0
11,Estimation1,736.89,E11,821.9,823.42,7.03,A,left,0.75,9,0.65,15,0.85,6,0.55,31,2,1.0,1,2,3,,,,,,,101
11,Estimation1,736.89,E12,830.78,832.3,5.73,B,left,0.75,9,0.65,15,0.85,7,0.55,31,1,2.0,2,1,3,,,,,,,110
11,Estimation1,736.89,E13,838.37,839.88,5.94,C,right,0.75,9,0.65,15,0.85,7,0.55,31,2,1.0,2,1,3,,,,,,,11
11,1,848.98,1,849.04,850.56,10.63,C,mid,0.31,32,0.38,26,0.85,11,-999.0,-999,-999,99.0,1,3,2,0.0,0.0,0.0,0.0,0.0,0.0,0
11,1,848.98,2,861.54,863.06,10.72,A,left,0.78,9,0.68,15,0.82,7,0.52,31,-999,1.0,1,3,2,3.0,0.0,3.0,0.0,-3.0,0.0,0
11,1,848.98,3,874.12,875.64,5.56,A,mid,0.72,9,0.62,14,0.7,8,0.6,13,-999,32.0,2,1,3,-3.0,0.0,-3.0,-1.0,0.0,0.0,111
11,1,848.98,4,881.53,883.05,11.68,B,right,0.75,8,0.68,14,0.73,7,0.66,13,-999,31.0,1,3,2,0.0,-1.0,3.0,-1.0,0.0,-1.0,110
11,1,848.98,5,895.06,896.58,5.94,C,mid,0.27,37,0.61,16,0.89,11,-999.0,-999,-999,99.0,1,3,2,0.0,0.0,0.0,0.0,0.0,0.0,111
11,1,848.98,6,902.86,904.38,6.09,C,left,0.32,31,0.6,16,0.78,12,-999.0,-999,-999,99.0,3,2,1,0.0,0.0,0.0,0.0,0.0,0.0,111
11,1,848.98,7,910.81,912.32,12.52,B,right,0.78,8,0.68,15,0.88,7,0.58,31,-999,1.0,1,3,2,3.0,-1.0,3.0,0.0,3.0,0.0,101
11,1,848.98,8,925.19,926.7,10.12,A,left,0.72,9,0.62,15,0.7,8,0.6,14,-999,31.0,1,2,3,-3.0,0.0,-3.0,0.0,0.0,-1.0,101
11,1,848.98,9,937.15,938.67,4.38,C,left,0.75,9,0.65,14,0.73,8,0.63,13,-999,31.0,3,2,1,0.0,0.0,0.0,-1.0,0.0,0.0,1
11,1,848.98,10,943.38,944.9,10.76,C,mid,0.75,8,0.62,15,0.88,7,0.58,31,-999,1.0,1,3,2,0.0,-1.0,-3.0,0.0,3.0,0.0,100
11,1,848.98,11,955.99,957.51,9.65,A,mid,0.78,9,0.68,15,0.76,8,0.66,14,-999,31.0,2,3,1,3.0,0.0,3.0,0.0,0.0,0.0,101
11,1,848.98,12,967.51,969.02,4.19,C,left,0.27,37,0.47,21,0.86,11,-999.0,-999,-999,99.0,3,2,1,0.0,0.0,0.0,0.0,0.0,0.0,111
11,1,848.98,13,973.55,975.07,9.08,B,right,0.78,9,0.65,15,0.76,8,0.63,14,-999,32.0,1,3,2,3.0,0.0,0.0,0.0,0.0,0.0,101
11,1,848.98,14,984.48,986.0,14.8,B,left,0.72,9,0.65,14,0.7,8,0.63,13,-999,32.0,3,1,2,-3.0,0.0,0.0,-1.0,3.0,0.0,0
11,1,848.98,15,1001.15,1002.66,7.32,A,right,0.72,9,0.68,15,0.82,6,0.52,30,-999,1.0,3,1,2,-3.0,0.0,3.0,0.0,-3.0,-1.0,0
11,1,848.98,16,1010.31,1011.82,9.28,B,left,0.72,9,0.68,15,0.82,7,0.52,31,-999,2.0,3,1,2,-3.0,0.0,3.0,0.0,-3.0,0.0,111
11,1,848.98,17,1021.44,1022.95,9.86,B,left,0.72,8,0.65,15,0.88,6,0.58,30,-999,2.0,3,1,2,-3.0,-1.0,0.0,0.0,3.0,-1.0,10
11,1,848.98,18,1033.15,1034.67,4.66,A,right,0.72,8,0.62,15,0.7,7,0.6,14,-999,32.0,3,2,1,-3.0,-1.0,-3.0,0.0,-3.0,-1.0,110
11,1,848.98,19,1039.67,1041.18,3.39,B,left,0.78,8,0.68,15,0.85,6,0.55,30,-999,1.0,2,1,3,3.0,-1.0,3.0,0.0,0.0,-1.0,0
11,1,848.98,20,1044.91,1046.43,7.87,B,left,0.72,9,0.65,15,0.7,8,0.63,14,-999,31.0,2,1,3,-3.0,0.0,0.0,0.0,-3.0,-1.0,11
11,1,848.98,21,1054.63,1056.14,8.66,B,left,0.78,9,0.65,14,0.82,6,0.52,30,-999,1.0,2,1,3,3.0,0.0,0.0,-1.0,-3.0,-1.0,101
11,1,848.98,22,1065.14,1066.66,8.37,A,mid,0.75,9,0.65,15,0.85,7,0.55,31,-999,1.0,2,1,3,0.0,0.0,0.0,0.0,0.0,0.0,1
11,1,848.98,23,1075.37,1076.89,8.94,B,right,0.72,9,0.68,15,0.82,6,0.52,30,-999,1.0,2,3,1,-3.0,0.0,3.0,0.0,-3.0,-1.0,11
11,1,848.98,24,1086.17,1087.68,16.08,A,left,0.75,9,0.65,15,0.82,6,0.52,30,-999,1.0,1,2,3,0.0,0.0,0.0,0.0,-3.0,-1.0,100
11,1,848.98,25,1104.11,1105.63,3.0,A,left,0.72,9,0.62,15,0.7,8,0.6,14,-999,32.0,1,3,2,-3.0,0.0,-3.0,0.0,0.0,0.0,11
11,1,848.98,26,1108.96,1110.48,5.1,B,mid,0.75,9,0.65,15,0.73,8,0.63,14,-999,31.0,1,2,3,0.0,0.0,0.0,0.0,0.0,-1.0,101
11,1,848.98,27,1115.91,1117.42,4.29,C,right,0.72,8,0.62,14,0.88,7,0.58,31,-999,2.0,1,2,3,-3.0,-1.0,-3.0,-1.0,3.0,0.0,111
11,1,848.98,28,1122.06,1123.57,5.0,B,left,0.78,9,0.65,14,0.82,6,0.52,30,-999,2.0,2,1,3,3.0,0.0,0.0,-1.0,-3.0,-1.0,101
11,1,848.98,29,1128.92,1130.44,4.34,A,mid,0.75,9,0.62,15,0.88,6,0.58,30,-999,1.0,2,3,1,0.0,0.0,-3.0,0.0,3.0,-1.0,100
11,1,848.98,30,1135.12,1136.63,14.37,A,mid,0.72,9,0.65,15,0.82,6,0.52,30,-999,1.0,2,1,3,-3.0,0.0,0.0,0.0,-3.0,-1.0,0
11,1,848.98,31,1151.35,1152.86,5.6,B,right,0.72,8,0.68,15,0.88,7,0.58,31,-999,2.0,2,3,1,-3.0,-1.0,3.0,0.0,3.0,0.0,110
11,1,848.98,32,1158.79,1160.31,15.4,C,right,0.19,52,0.59,16,0.81,12,-999.0,-999,-999,99.0,1,2,3,0.0,0.0,0.0,0.0,0.0,0.0,10
11,1,848.98,33,1176.05,1177.57,6.71,B,right,0.75,8,0.65,14,0.73,7,0.63,13,-999,32.0,1,3,2,0.0,-1.0,0.0,-1.0,3.0,0.0,100
11,1,848.98,34,1184.62,1186.13,5.17,A,right,0.75,9,0.62,14,0.88,7,0.58,31,-999,2.0,3,1,2,0.0,0.0,-3.0,-1.0,3.0,0.0,110
11,1,848.98,35,1191.65,1193.17,6.81,B,right,0.72,9,0.65,15,0.82,6,0.52,30,-999,2.0,2,3,1,-3.0,0.0,0.0,0.0,-3.0,-1.0,0
11,1,848.98,36,1200.31,1201.83,9.77,C,right,0.29,34,0.42,23,0.72,13,-999.0,-999,-999,99.0,2,1,3,0.0,0.0,0.0,0.0,0.0,0.0,111
11,1,848.98,37,1211.94,1213.46,12.67,A,left,0.78,8,0.68,15,0.76,7,0.66,14,-999,31.0,1,2,3,3.0,-1.0,3.0,0.0,0.0,0.0,100
11,1,848.98,38,1266.16,1267.67,2.54,A,left,0.72,9,0.62,15,0.7,8,0.6,14,-999,32.0,1,2,3,-3.0,0.0,-3.0,0.0,3.0,-1.0,110
11,1,848.98,39,1270.56,1272.07,2.52,C,right,0.16,62,0.46,21,0.87,11,-999.0,-999,-999,99.0,1,2,3,0.0,0.0,0.0,0.0,0.0,0.0,11
11,1,848.98,40,1274.94,1276.45,3.79,A,right,0.78,9,0.65,14,0.82,7,0.52,31,-999,1.0,3,1,2,3.0,0.0,0.0,-1.0,-3.0,0.0,110
11,1,848.98,41,1280.59,1282.1,3.05,B,left,0.75,8,0.68,14,0.85,6,0.55,30,-999,2.0,2,1,3,0.0,-1.0,3.0,-1.0,0.0,-1.0,110
11,1,848.98,42,1285.49,1287.0,14.71,B,right,0.72,9,0.68,14,0.88,7,0.58,31,-999,2.0,1,3,2,-3.0,0.0,3.0,-1.0,3.0,0.0,1
11,1,848.98,43,1302.05,1303.56,6.46,B,mid,0.75,8,0.62,15,0.73,7,0.6,14,-999,32.0,1,2,3,0.0,-1.0,-3.0,0.0,-3.0,0.0,110
11,1,848.98,44,1310.36,1311.88,3.42,C,mid,0.72,9,0.62,14,0.85,7,0.55,31,-999,2.0,3,1,2,-3.0,0.0,-3.0,-1.0,0.0,0.0,10
11,1,848.98,45,1315.64,1317.16,2.41,A,right,0.78,9,0.68,15,0.88,6,0.58,30,-999,1.0,3,2,1,3.0,0.0,3.0,0.0,3.0,-1.0,1
11,1,848.98,46,1319.91,1321.42,2.69,A,mid,0.78,9,0.62,14,0.85,6,0.55,30,-999,1.0,2,1,3,3.0,0.0,-3.0,-1.0,0.0,-1.0,10
11,1,848.98,47,1324.46,1325.97,5.15,B,right,0.78,8,0.68,14,0.76,7,0.66,13,-999,32.0,2,3,1,3.0,-1.0,3.0,-1.0,3.0,-1.0,11
11,1,848.98,48,1331.45,1332.97,12.82,B,mid,0.78,9,0.65,15,0.76,8,0.63,14,-999,32.0,1,2,3,3.0,0.0,0.0,0.0,-3.0,-1.0,10
11,1,848.98,49,1346.13,1347.65,19.53,B,mid,0.78,9,0.62,14,0.85,7,0.55,31,-999,2.0,1,2,3,3.0,0.0,-3.0,-1.0,0.0,0.0,11
11,1,848.98,50,1367.51,1369.02,4.61,B,mid,0.72,8,0.65,14,0.7,7,0.63,13,-999,31.0,3,2,1,-3.0,-1.0,0.0,-1.0,3.0,-1.0,0
11,1,848.98,51,1373.97,1375.49,2.78,B,left,0.72,8,0.68,14,0.85,7,0.55,31,-999,2.0,2,1,3,-3.0,-1.0,3.0,-1.0,0.0,0.0,1
11,1,848.98,52,1378.62,1380.14,2.74,B,left,0.78,8,0.62,15,0.76,7,0.6,14,-999,31.0,2,1,3,3.0,-1.0,-3.0,0.0,0.0,0.0,10
11,1,848.98,53,1383.22,1384.74,1.08,C,right,0.24,41,0.37,27,0.76,13,-999.0,-999,-999,99.0,1,2,3,0.0,0.0,0.0,0.0,0.0,0.0,0
11,1,848.98,54,1386.15,1387.67,4.6,B,left,0.75,8,0.68,14,0.73,7,0.66,13,-999,32.0,2,1,3,0.0,-1.0,3.0,-1.0,0.0,0.0,100
11,1,848.98,55,1392.6,1394.12,2.9,A,left,0.78,8,0.62,15,0.85,6,0.55,30,-999,1.0,1,2,3,3.0,-1.0,-3.0,0.0,0.0,-1.0,0
11,1,848.98,56,1397.35,1398.86,7.21,C,left,0.32,31,0.48,20,0.85,11,-999.0,-999,-999,99.0,2,3,1,0.0,0.0,0.0,0.0,0.0,0.0,10
11,1,848.98,57,1406.41,1407.93,4.1,B,mid,0.75,9,0.65,15,0.73,8,0.63,14,-999,31.0,1,2,3,0.0,0.0,0.0,0.0,0.0,0.0,101
11,1,848.98,58,1412.36,1413.88,7.68,B,right,0.72,8,0.65,15,0.7,7,0.63,14,-999,31.0,1,3,2,-3.0,-1.0,0.0,0.0,3.0,-1.0,111
11,1,848.98,59,1421.91,1423.42,3.72,A,mid,0.75,9,0.65,14,0.85,6,0.55,30,-999,2.0,2,1,3,0.0,0.0,0.0,-1.0,0.0,-1.0,100
11,1,848.98,60,1427.49,1429.01,3.08,A,right,0.78,9,0.62,15,0.76,8,0.6,14,-999,32.0,3,1,2,3.0,0.0,-3.0,0.0,3.0,0.0,110
11,1,848.98,61,1432.42,1433.94,4.83,A,right,0.75,8,0.65,15,0.73,7,0.63,14,-999,31.0,3,2,1,0.0,-1.0,0.0,0.0,3.0,-1.0,1
11,1,848.98,62,1439.1,1440.62,3.37,B,left,0.75,9,0.65,14,0.73,8,0.63,13,-999,31.0,3,1,2,0.0,0.0,0.0,-1.0,-3.0,-1.0,111
11,1,848.98,63,1444.32,1445.83,4.27,A,right,0.75,8,0.68,15,0.88,7,0.58,31,-999,1.0,3,2,1,0.0,-1.0,3.0,0.0,3.0,0.0,0
11,1,848.98,64,1450.45,1451.96,9.71,A,left,0.78,8,0.62,15,0.76,7,0.6,14,-999,32.0,1,2,3,3.0,-1.0,-3.0,0.0,-3.0,-1.0,0
11,1,848.98,65,1462.01,1463.53,6.66,A,mid,0.78,8,0.62,14,0.76,7,0.6,13,-999,32.0,2,3,1,3.0,-1.0,-3.0,-1.0,0.0,-1.0,110
11,1,848.98,66,1470.52,1472.04,3.9,A,mid,0.72,8,0.65,15,0.7,7,0.63,14,-999,31.0,2,1,3,-3.0,-1.0,0.0,0.0,3.0,-1.0,101
11,1,848.98,67,1476.27,1477.79,4.22,C,right,0.28,35,0.67,14,0.78,12,-999.0,-999,-999,99.0,2,1,3,0.0,0.0,0.0,0.0,0.0,0.0,111
11,1,848.98,68,1482.35,1483.87,3.7,B,right,0.72,9,0.68,14,0.7,8,0.66,13,-999,32.0,1,3,2,-3.0,0.0,3.0,-1.0,0.0,-1.0,10
11,1,848.98,69,1487.9,1489.42,8.76,B,mid,0.72,8,0.68,14,0.7,7,0.66,13,-999,31.0,1,2,3,-3.0,-1.0,3.0,-1.0,-3.0,0.0,111
11,1,848.98,70,1498.52,1500.03,4.65,B,left,0.78,8,0.65,15,0.76,7,0.63,14,-999,32.0,3,1,2,3.0,-1.0,0.0,0.0,-3.0,-1.0,111
11,1,848.98,71,1505.01,1506.53,3.09,A,right,0.78,9,0.62,14,0.76,8,0.6,13,-999,31.0,3,2,1,3.0,0.0,-3.0,-1.0,-3.0,0.0,100
11,1,848.98,72,1509.96,1511.48,3.34,C,mid,0.72,9,0.62,14,0.85,7,0.55,31,-999,2.0,3,1,2,-3.0,0.0,-3.0,-1.0,0.0,0.0,0
11,1,848.98,73,1515.16,1516.68,2.38,C,mid,0.75,8,0.62,15,0.88,6,0.58,30,-999,2.0,1,3,2,0.0,-1.0,-3.0,0.0,3.0,-1.0,110
11,1,848.98,74,1519.39,1520.91,11.26,B,left,0.19,52,0.56,17,0.8,12,-999.0,-999,-999,99.0,3,1,2,0.0,0.0,0.0,0.0,0.0,0.0,110
11,1,848.98,75,1532.5,1534.02,3.59,C,right,0.72,8,0.65,15,0.85,7,0.55,31,-999,2.0,2,1,3,-3.0,-1.0,0.0,0.0,0.0,0.0,110
11,Estimation2,1657.54,E1,1657.61,1659.13,2.85,B,mid,0.75,11,0.65,15,0.85,-999,0.55,20,3,,3,2,1,,,,,,,110
11,Estimation2,1657.54,E2,1662.31,1663.83,1.61,B,mid,0.75,12,0.65,15,0.85,-999,0.55,20,1,2.0,3,2,1,,,,,,,100
11,Estimation2,1657.54,E3,1665.76,1667.28,2.8,A,mid,0.75,12,0.65,15,0.85,-999,0.55,28,3,,2,1,3,,,,,,,110
11,Estimation2,1657.54,E4,1670.41,1671.93,3.02,C,right,0.75,12,0.65,15,0.85,6,0.55,28,1,2.0,1,2,3,,,,,,,0
11,Estimation2,1657.54,E5,1675.27,1676.79,1.75,A,right,0.75,12,0.65,15,0.85,6,0.55,24,2,1.0,3,1,2,,,,,,,1
11,Estimation2,1657.54,E6,1678.87,1680.39,2.0,B,right,0.75,12,0.65,15,0.85,8,0.55,24,1,2.0,1,3,2,,,,,,,1
11,Estimation2,1657.54,E7,1682.72,1684.24,1.87,A,left,0.75,12,0.65,15,0.85,8,0.55,26,2,1.0,1,3,2,,,,,,,0
11,Estimation2,1657.54,E8,1686.45,1687.97,5.92,B,mid,0.75,12,0.65,15,0.85,9,0.55,26,1,2.0,1,2,3,,,,,,,0
11,Estimation2,1657.54,E9,1694.22,1695.73,2.5,A,right,0.75,12,0.65,15,0.85,9,0.55,27,2,1.0,3,1,2,,,,,,,101
11,Estimation2,1657.54,E10,1698.58,1700.1,2.28,B,left,0.75,12,0.65,15,0.85,10,0.55,27,1,2.0,3,1,2,,,,,,,10
11,Estimation2,1657.54,E11,1702.72,1704.23,1.58,C,left,0.75,12,0.65,15,0.85,10,0.55,28,2,1.0,3,2,1,,,,,,,110
11,Estimation2,1657.54,E12,1706.15,1707.66,2.92,B,left,0.75,12,0.65,15,0.85,10,0.55,28,1,2.0,3,1,2,,,,,,,110
11,2,1712.76,1,1712.83,1714.34,7.62,A,mid,0.75,12,0.65,15,0.73,11,0.63,14,-999,31.0,2,3,1,0.0,0.0,0.0,0.0,0.0,0.0,110
11,2,1712.76,2,1722.31,1723.83,5.87,A,right,0.78,12,0.62,14,0.76,11,0.6,13,-999,31.0,3,1,2,3.0,0.0,-3.0,-1.0,-3.0,0.0,11
11,2,1712.76,3,1730.02,1731.54,2.34,A,left,0.78,11,0.62,15,0.76,10,0.6,14,-999,31.0,1,2,3,3.0,-1.0,-3.0,0.0,0.0,0.0,101
11,2,1712.76,4,1734.22,1735.74,9.71,C,mid,0.19,52,0.56,17,0.8,12,-999.0,-999,-999,99.0,1,3,2,0.0,0.0,0.0,0.0,0.0,0.0,111
11,2,1712.76,5,1745.78,1747.3,4.97,C,right,0.78,11,0.68,15,0.88,10,0.58,28,-999,1.0,2,1,3,3.0,-1.0,3.0,0.0,3.0,0.0,11
11,2,1712.76,6,1752.6,1754.12,4.18,A,mid,0.75,11,0.65,15,0.73,10,0.63,14,-999,31.0,2,1,3,0.0,-1.0,0.0,0.0,3.0,-1.0,100
11,2,1712.76,7,1758.63,1760.15,2.67,B,mid,0.75,11,0.65,14,0.73,10,0.63,13,-999,32.0,3,2,1,0.0,-1.0,0.0,-1.0,3.0,0.0,0
11,2,1712.76,8,1763.15,1764.66,22.53,B,right,0.72,12,0.68,15,0.82,9,0.52,27,-999,1.0,2,3,1,-3.0,0.0,3.0,0.0,-3.0,-1.0,111
11,2,1712.76,9,1787.52,1789.04,6.11,A,right,0.75,11,0.68,15,0.88,10,0.58,28,-999,1.0,3,2,1,0.0,-1.0,3.0,0.0,3.0,0.0,0
11,2,1712.76,10,1795.49,1797.0,4.23,A,mid,0.72,12,0.65,14,0.7,11,0.63,13,-999,32.0,2,1,3,-3.0,0.0,0.0,-1.0,3.0,0.0,1
11,2,1712.76,11,1801.57,1803.08,4.33,B,mid,0.72,12,0.68,15,0.82,10,0.52,28,-999,2.0,3,2,1,-3.0,0.0,3.0,0.0,-3.0,0.0,10
11,2,1712.76,12,1807.75,1809.26,5.55,A,right,0.78,12,0.68,15,0.82,10,0.52,28,-999,1.0,3,1,2,3.0,0.0,3.0,0.0,-3.0,0.0,110
11,2,1712.76,13,1815.15,1816.66,4.76,B,left,0.72,11,0.65,14,0.7,10,0.63,13,-999,31.0,3,1,2,-3.0,-1.0,0.0,-1.0,3.0,-1.0,0
11,2,1712.76,14,1821.76,1823.28,5.36,A,mid,0.78,12,0.62,15,0.76,11,0.6,14,-999,32.0,2,1,3,3.0,0.0,-3.0,0.0,3.0,0.0,110
11,2,1712.76,15,1828.97,1830.49,5.2,A,right,0.78,11,0.68,15,0.76,10,0.66,14,-999,31.0,3,1,2,3.0,-1.0,3.0,0.0,0.0,0.0,110
11,2,1712.76,16,1836.02,1837.54,6.5,B,right,0.72,12,0.62,15,0.7,11,0.6,14,-999,32.0,1,3,2,-3.0,0.0,-3.0,0.0,3.0,-1.0,0
11,2,1712.76,17,1844.39,1845.9,2.93,A,right,0.78,11,0.65,15,0.76,10,0.63,14,-999,32.0,3,2,1,3.0,-1.0,0.0,0.0,-3.0,-1.0,1
11,2,1712.76,18,1849.17,1850.68,4.54,C,left,0.72,12,0.68,15,0.82,9,0.52,27,-999,1.0,2,3,1,-3.0,0.0,3.0,0.0,-3.0,-1.0,11
11,2,1712.76,19,1855.57,1857.08,4.14,C,mid,0.24,41,0.37,27,0.76,13,-999.0,-999,-999,99.0,1,3,2,0.0,0.0,0.0,0.0,0.0,0.0,10
11,2,1712.76,20,1861.56,1863.08,4.4,B,mid,0.78,11,0.68,14,0.76,10,0.66,13,-999,32.0,3,2,1,3.0,-1.0,3.0,-1.0,3.0,-1.0,10
11,2,1712.76,21,1867.81,1869.33,3.02,C,mid,0.29,34,0.42,23,0.72,13,-999.0,-999,-999,99.0,3,1,2,0.0,0.0,0.0,0.0,0.0,0.0,11
11,2,1712.76,22,1872.68,1874.19,7.55,A,mid,0.78,12,0.62,14,0.85,10,0.55,28,-999,2.0,2,3,1,3.0,0.0,-3.0,-1.0,0.0,0.0,101
11,2,1712.76,23,1882.09,1883.61,7.57,A,right,0.78,12,0.65,15,0.76,11,0.63,14,-999,32.0,3,2,1,3.0,0.0,0.0,0.0,-3.0,-1.0,10
11,2,1712.76,24,1891.52,1893.04,8.6,B,mid,0.78,11,0.68,15,0.85,9,0.55,27,-999,1.0,3,2,1,3.0,-1.0,3.0,0.0,0.0,-1.0,111
11,2,1712.76,25,1901.97,1903.48,4.02,C,mid,0.27,37,0.47,21,0.86,11,-999.0,-999,-999,99.0,3,1,2,0.0,0.0,0.0,0.0,0.0,0.0,10
11,2,1712.76,26,1907.85,1909.36,2.57,A,mid,0.75,11,0.62,15,0.73,10,0.6,14,-999,32.0,2,3,1,0.0,-1.0,-3.0,0.0,-3.0,0.0,100
11,2,1712.76,27,1912.28,1913.8,3.51,A,left,0.78,12,0.65,14,0.82,9,0.52,27,-999,1.0,1,2,3,3.0,0.0,0.0,-1.0,-3.0,-1.0,11
11,2,1712.76,28,1917.65,1919.16,19.42,B,right,0.72,12,0.65,15,0.82,9,0.52,27,-999,1.0,2,3,1,-3.0,0.0,0.0,0.0,-3.0,-1.0,1
11,2,1712.76,29,1938.92,1940.44,1.64,A,left,0.78,12,0.65,15,0.76,11,0.63,14,-999,32.0,1,3,2,3.0,0.0,0.0,0.0,0.0,0.0,0
11,2,1712.76,30,1942.42,1943.94,4.63,C,mid,0.72,11,0.68,14,0.85,10,0.55,28,-999,2.0,3,1,2,-3.0,-1.0,3.0,-1.0,0.0,0.0,100
11,2,1712.76,31,1948.9,1950.42,2.59,A,left,0.72,11,0.65,15,0.7,10,0.63,14,-999,31.0,1,2,3,-3.0,-1.0,0.0,0.0,3.0,-1.0,0
11,2,1712.76,32,1953.35,1954.87,6.67,A,mid,0.75,12,0.65,14,0.85,9,0.55,27,-999,2.0,2,1,3,0.0,0.0,0.0,-1.0,0.0,-1.0,10
11,2,1712.76,33,1961.88,1963.4,4.51,A,left,0.75,12,0.65,15,0.82,9,0.52,27,-999,1.0,1,3,2,0.0,0.0,0.0,0.0,-3.0,-1.0,111
11,2,1712.76,34,1968.25,1969.76,8.76,C,right,0.32,31,0.6,16,0.78,12,-999.0,-999,-999,99.0,1,2,3,0.0,0.0,0.0,0.0,0.0,0.0,10
11,2,1712.76,35,1978.86,1980.37,3.42,C,left,0.78,12,0.68,15,0.76,11,0.66,14,-999,31.0,3,2,1,3.0,0.0,3.0,0.0,0.0,0.0,100
11,2,1712.76,36,1984.12,1985.64,7.94,A,left,0.78,11,0.62,15,0.76,10,0.6,14,-999,32.0,1,2,3,3.0,-1.0,-3.0,0.0,-3.0,-1.0,101
11,2,1712.76,37,1993.92,1995.44,4.25,A,left,0.78,11,0.62,14,0.76,10,0.6,13,-999,32.0,1,3,2,3.0,-1.0,-3.0,-1.0,0.0,-1.0,11
11,2,1712.76,38,2074.69,2076.21,2.52,C,mid,0.75,12,0.62,15,0.88,9,0.58,27,-999,1.0,1,3,2,0.0,0.0,-3.0,0.0,3.0,-1.0,11
11,2,1712.76,39,2079.06,2080.58,4.94,C,mid,0.75,11,0.68,14,0.73,10,0.66,13,-999,31.0,3,1,2,0.0,-1.0,3.0,-1.0,0.0,-1.0,111
11,2,1712.76,40,2085.86,2087.37,1.79,C,mid,0.75,12,0.65,15,0.85,10,0.55,28,-999,1.0,1,3,2,0.0,0.0,0.0,0.0,0.0,0.0,111
11,2,1712.76,41,2089.51,2091.02,2.36,B,left,0.72,11,0.68,14,0.7,10,0.66,13,-999,31.0,2,1,3,-3.0,-1.0,3.0,-1.0,-3.0,0.0,10
11,2,1712.76,42,2093.72,2095.24,2.96,A,left,0.72,12,0.62,15,0.7,11,0.6,14,-999,31.0,1,2,3,-3.0,0.0,-3.0,0.0,0.0,-1.0,0
11,2,1712.76,43,2098.54,2100.05,1.34,A,right,0.72,11,0.65,15,0.88,9,0.58,27,-999,2.0,3,1,2,-3.0,-1.0,0.0,0.0,3.0,-1.0,0
11,2,1712.76,44,2101.73,2103.25,2.21,A,left,0.72,12,0.68,14,0.88,10,0.58,28,-999,2.0,1,2,3,-3.0,0.0,3.0,-1.0,3.0,0.0,100
11,2,1712.76,45,2105.8,2107.32,2.82,A,mid,0.72,12,0.65,15,0.7,11,0.63,14,-999,31.0,2,1,3,-3.0,0.0,0.0,0.0,-3.0,-1.0,101
11,2,1712.76,46,2110.47,2111.98,1.26,A,left,0.78,11,0.62,15,0.85,9,0.55,27,-999,1.0,1,2,3,3.0,-1.0,-3.0,0.0,0.0,-1.0,100
11,2,1712.76,47,2113.58,2115.1,2.82,A,mid,0.72,11,0.62,14,0.88,10,0.58,28,-999,2.0,2,3,1,-3.0,-1.0,-3.0,-1.0,3.0,0.0,11
11,2,1712.76,48,2118.26,2119.78,2.44,A,right,0.78,12,0.65,14,0.82,10,0.52,28,-999,1.0,3,2,1,3.0,0.0,0.0,-1.0,-3.0,0.0,11
11,2,1712.76,49,2122.56,2124.08,4.76,B,left,0.75,11,0.68,14,0.73,10,0.66,13,-999,32.0,2,1,3,0.0,-1.0,3.0,-1.0,0.0,0.0,10
11,2,1712.76,50,2129.18,2130.69,1.98,A,left,0.78,12,0.68,15,0.88,9,0.58,27,-999,1.0,1,3,2,3.0,0.0,3.0,0.0,3.0,-1.0,10
11,2,1712.76,51,2133.01,2134.52,3.48,C,right,0.31,32,0.38,26,0.85,11,-999.0,-999,-999,99.0,2,1,3,0.0,0.0,0.0,0.0,0.0,0.0,110
11,2,1712.76,52,2138.34,2139.86,5.93,B,right,0.19,52,0.59,16,0.81,12,-999.0,-999,-999,99.0,1,3,2,0.0,0.0,0.0,0.0,0.0,0.0,0
11,2,1712.76,53,2146.12,2147.64,3.46,A,left,0.75,12,0.62,14,0.88,10,0.58,28,-999,2.0,1,2,3,0.0,0.0,-3.0,-1.0,3.0,0.0,110
11,2,1712.76,54,2151.44,2152.95,3.08,A,mid,0.75,12,0.65,15,0.73,11,0.63,14,-999,31.0,2,3,1,0.0,0.0,0.0,0.0,0.0,-1.0,111
11,2,1712.76,55,2156.37,2157.88,1.96,C,right,0.27,37,0.61,16,0.89,11,-999.0,-999,-999,99.0,2,1,3,0.0,0.0,0.0,0.0,0.0,0.0,101
11,2,1712.76,56,2160.18,2161.7,5.01,A,right,0.72,12,0.62,14,0.7,11,0.6,13,-999,32.0,3,2,1,-3.0,0.0,-3.0,-1.0,0.0,0.0,100
11,2,1712.76,57,2167.05,2168.56,1.86,C,right,0.78,12,0.62,14,0.85,9,0.55,27,-999,1.0,1,2,3,3.0,0.0,-3.0,-1.0,0.0,-1.0,111
11,2,1712.76,58,2170.76,2172.28,4.63,C,right,0.75,11,0.68,14,0.85,9,0.55,27,-999,2.0,1,2,3,0.0,-1.0,3.0,-1.0,0.0,-1.0,1
11,2,1712.76,59,2177.24,2178.76,3.49,A,right,0.72,12,0.68,14,0.7,11,0.66,13,-999,32.0,3,2,1,-3.0,0.0,3.0,-1.0,0.0,-1.0,0
11,2,1712.76,60,2182.59,2184.11,3.1,A,mid,0.75,12,0.65,14,0.73,11,0.63,13,-999,31.0,2,3,1,0.0,0.0,0.0,-1.0,-3.0,-1.0,10
11,2,1712.76,61,2187.54,2189.06,2.23,A,right,0.72,11,0.68,15,0.88,10,0.58,28,-999,2.0,3,1,2,-3.0,-1.0,3.0,0.0,3.0,0.0,111
11,2,1712.76,62,2191.62,2193.14,2.65,A,right,0.75,12,0.65,14,0.73,11,0.63,13,-999,31.0,3,2,1,0.0,0.0,0.0,-1.0,0.0,0.0,110
11,2,1712.76,63,2196.12,2197.64,2.58,C,right,0.28,35,0.67,14,0.78,12,-999.0,-999,-999,99.0,1,2,3,0.0,0.0,0.0,0.0,0.0,0.0,100
11,2,1712.76,64,2200.55,2202.07,4.56,C,right,0.16,62,0.46,21,0.87,11,-999.0,-999,-999,99.0,1,2,3,0.0,0.0,0.0,0.0,0.0,0.0,0
11,2,1712.76,65,2206.97,2208.48,4.29,A,left,0.72,12,0.62,15,0.7,11,0.6,14,-999,32.0,1,2,3,-3.0,0.0,-3.0,0.0,0.0,0.0,10
11,2,1712.76,66,2213.12,2214.63,2.43,A,right,0.75,11,0.62,15,0.88,9,0.58,27,-999,2.0,3,1,2,0.0,-1.0,-3.0,0.0,3.0,-1.0,0
11,2,1712.76,67,2217.4,2218.91,2.04,B,right,0.72,11,0.65,15,0.85,10,0.55,28,-999,2.0,2,3,1,-3.0,-1.0,0.0,0.0,0.0,0.0,110
11,2,1712.76,68,2221.3,2222.81,2.34,A,right,0.72,11,0.65,15,0.7,10,0.63,14,-999,31.0,3,2,1,-3.0,-1.0,0.0,0.0,3.0,-1.0,10
11,2,1712.76,69,2225.49,2227.01,2.5,C,left,0.75,11,0.62,15,0.88,10,0.58,28,-999,1.0,3,2,1,0.0,-1.0,-3.0,0.0,3.0,0.0,110
11,2,1712.76,70,2229.84,2231.36,5.01,A,right,0.72,12,0.62,14,0.85,10,0.55,28,-999,2.0,3,1,2,-3.0,0.0,-3.0,-1.0,0.0,0.0,10
11,2,1712.76,71,2236.71,2238.22,3.45,B,left,0.78,12,0.65,14,0.82,9,0.52,27,-999,2.0,2,1,3,3.0,0.0,0.0,-1.0,-3.0,-1.0,1
11,2,1712.76,72,2242.01,2243.52,1.59,A,right,0.72,11,0.62,15,0.7,10,0.6,14,-999,32.0,3,2,1,-3.0,-1.0,-3.0,0.0,-3.0,-1.0,110
11,2,1712.76,73,2245.45,2246.97,1.95,C,mid,0.32,31,0.48,20,0.85,11,-999.0,-999,-999,99.0,1,3,2,0.0,0.0,0.0,0.0,0.0,0.0,110
11,2,1712.76,74,2249.25,2250.77,7.63,A,right,0.72,12,0.65,15,0.82,9,0.52,27,-999,2.0,3,2,1,-3.0,0.0,0.0,0.0,-3.0,-1.0,110
11,2,1712.76,75,2258.73,2260.25,9.4,A,right,0.72,12,0.62,14,0.85,10,0.55,28,-999,2.0,3,2,1,-3.0,0.0,-3.0,-1.0,0.0,0.0,11
11,Estimation3,2376.27,E1,2376.33,2377.84,1.88,A,left,0.75,11,0.65,15,0.85,-999,0.55,20,3,,1,3,2,,,,,,,111
11,Estimation3,2376.27,E2,2380.06,2381.58,1.37,B,left,0.75,8,0.65,15,0.85,-999,0.55,20,1,2.0,3,1,2,,,,,,,100
11,Estimation3,2376.27,E3,2383.28,2384.79,0.87,A,right,0.75,8,0.65,15,0.85,-999,0.55,28,3,,3,2,1,,,,,,,11
11,Estimation3,2376.27,E4,2385.99,2387.51,1.61,C,right,0.75,6,0.65,15,0.85,-999,0.55,28,1,2.0,1,2,3,,,,,,,110
11,Estimation3,2376.27,E5,2389.46,2390.97,0.95,A,left,0.75,6,0.65,15,0.85,-999,0.55,24,3,,1,2,3,,,,,,,0
11,Estimation3,2376.27,E6,2392.26,2393.77,2.64,B,mid,0.75,5,0.65,15,0.85,-999,0.55,24,1,2.0,3,2,1,,,,,,,111
11,Estimation3,2376.27,E7,2396.74,2398.25,2.06,A,right,0.75,5,0.65,15,0.85,-999,0.55,26,3,,3,1,2,,,,,,,101
11,Estimation3,2376.27,E8,2400.65,2402.17,2.21,B,mid,0.75,5,0.65,15,0.85,3,0.55,26,1,2.0,1,2,3,,,,,,,11
11,Estimation3,2376.27,E9,2404.72,2406.24,5.72,C,left,0.75,5,0.65,15,0.85,3,0.55,27,2,1.0,3,2,1,,,,,,,0
11,Estimation3,2376.27,E10,2412.3,2413.82,1.38,B,right,0.75,5,0.65,15,0.85,3,0.55,27,1,2.0,1,3,2,,,,,,,0
11,Estimation3,2376.27,E11,2415.53,2417.05,1.88,A,mid,0.75,5,0.65,15,0.85,3,0.55,28,2,1.0,2,3,1,,,,,,,10
11,Estimation3,2376.27,E12,2419.26,2420.78,2.8,C,right,0.75,5,0.65,15,0.85,3,0.55,28,1,2.0,2,1,3,,,,,,,11
11,3,2425.61,1,2425.68,2427.2,1.81,B,mid,0.78,5,0.68,15,0.76,4,0.66,14,-999,31.0,3,2,1,3.0,0.0,3.0,0.0,0.0,0.0,111
11,3,2425.61,2,2429.34,2430.86,2.0,B,right,0.78,5,0.68,15,0.82,3,0.52,28,-999,1.0,2,3,1,3.0,0.0,3.0,0.0,-3.0,0.0,111
11,3,2425.61,3,2433.19,2434.71,2.07,C,right,0.72,4,0.68,14,0.85,3,0.55,28,-999,2.0,2,1,3,-3.0,-1.0,3.0,-1.0,0.0,0.0,111
11,3,2425.61,4,2437.11,2438.62,1.63,B,right,0.78,4,0.68,15,0.88,3,0.58,28,-999,1.0,2,3,1,3.0,-1.0,3.0,0.0,3.0,0.0,111
11,3,2425.61,5,2440.59,2442.11,3.95,B,mid,0.72,5,0.68,15,0.82,3,0.52,28,-999,2.0,1,2,3,-3.0,0.0,3.0,0.0,-3.0,0.0,11
11,3,2425.61,6,2446.39,2447.9,2.93,A,right,0.72,5,0.65,15,0.82,2,0.52,27,-999,2.0,3,1,2,-3.0,0.0,0.0,0.0,-3.0,-1.0,111
11,3,2425.61,7,2451.17,2452.69,3.73,B,right,0.75,5,0.65,14,0.85,2,0.55,27,-999,2.0,1,3,2,0.0,0.0,0.0,-1.0,0.0,-1.0,1
11,3,2425.61,8,2456.75,2458.27,4.11,B,left,0.72,5,0.65,14,0.7,4,0.63,13,-999,32.0,3,1,2,-3.0,0.0,0.0,-1.0,3.0,0.0,10
11,3,2425.61,9,2462.72,2464.23,3.04,B,mid,0.78,5,0.62,14,0.76,4,0.6,13,-999,31.0,1,2,3,3.0,0.0,-3.0,-1.0,-3.0,0.0,11
11,3,2425.61,10,2467.62,2469.13,1.91,B,right,0.72,4,0.68,14,0.7,3,0.66,13,-999,31.0,1,3,2,-3.0,-1.0,3.0,-1.0,-3.0,0.0,10
11,3,2425.61,11,2471.38,2472.9,1.89,B,left,0.72,5,0.62,15,0.7,4,0.6,14,-999,31.0,3,1,2,-3.0,0.0,-3.0,0.0,0.0,-1.0,1
11,3,2425.61,12,2475.11,2476.63,2.49,B,right,0.72,5,0.68,15,0.82,2,0.52,27,-999,1.0,2,3,1,-3.0,0.0,3.0,0.0,-3.0,-1.0,101
11,3,2425.61,13,2479.46,2480.98,9.16,C,left,0.16,62,0.46,21,0.87,11,-999.0,-999,-999,99.0,3,2,1,0.0,0.0,0.0,0.0,0.0,0.0,110
11,3,2425.61,14,2490.47,2491.99,3.68,B,mid,0.75,4,0.62,15,0.88,2,0.58,27,-999,2.0,3,2,1,0.0,-1.0,-3.0,0.0,3.0,-1.0,111
11,3,2425.61,15,2496.01,2497.52,2.88,B,mid,0.75,5,0.65,15,0.73,4,0.63,14,-999,31.0,1,2,3,0.0,0.0,0.0,0.0,0.0,-1.0,1
11,3,2425.61,16,2500.74,2502.25,2.29,C,right,0.78,5,0.62,14,0.85,3,0.55,28,-999,2.0,1,2,3,3.0,0.0,-3.0,-1.0,0.0,0.0,0
11,3,2425.61,17,2504.89,2506.4,3.71,B,right,0.72,5,0.62,15,0.7,4,0.6,14,-999,32.0,2,3,1,-3.0,0.0,-3.0,0.0,3.0,-1.0,111
11,3,2425.61,18,2510.45,2511.97,4.69,B,right,0.72,4,0.65,15,0.88,2,0.58,27,-999,2.0,1,3,2,-3.0,-1.0,0.0,0.0,3.0,-1.0,11
11,3,2425.61,19,2517.0,2518.52,2.95,B,left,0.75,5,0.65,15,0.85,3,0.55,28,-999,1.0,2,1,3,0.0,0.0,0.0,0.0,0.0,0.0,11
11,3,2425.61,20,2521.81,2523.33,2.8,C,right,0.29,34,0.42,23,0.72,13,-999.0,-999,-999,99.0,1,2,3,0.0,0.0,0.0,0.0,0.0,0.0,110
11,3,2425.61,21,2526.46,2527.98,2.43,B,left,0.75,5,0.65,15,0.73,4,0.63,14,-999,31.0,3,1,2,0.0,0.0,0.0,0.0,0.0,0.0,10
11,3,2425.61,22,2530.74,2532.26,3.07,C,right,0.32,31,0.6,16,0.78,12,-999.0,-999,-999,99.0,2,1,3,0.0,0.0,0.0,0.0,0.0,0.0,100
11,3,2425.61,23,2535.66,2537.18,2.93,C,right,0.31,32,0.38,26,0.85,11,-999.0,-999,-999,99.0,1,2,3,0.0,0.0,0.0,0.0,0.0,0.0,11
11,3,2425.61,24,2540.44,2541.96,2.64,B,right,0.78,4,0.68,15,0.85,2,0.55,27,-999,1.0,1,3,2,3.0,-1.0,3.0,0.0,0.0,-1.0,111
11,3,2425.61,25,2544.94,2546.46,5.52,B,right,0.75,5,0.65,15,0.82,2,0.52,27,-999,1.0,2,3,1,0.0,0.0,0.0,0.0,-3.0,-1.0,11
11,3,2425.61,26,2552.32,2553.84,3.14,C,left,0.24,41,0.37,27,0.76,13,-999.0,-999,-999,99.0,2,3,1,0.0,0.0,0.0,0.0,0.0,0.0,10
11,3,2425.61,27,2557.32,2558.84,3.62,C,left,0.32,31,0.48,20,0.85,11,-999.0,-999,-999,99.0,3,2,1,0.0,0.0,0.0,0.0,0.0,0.0,101
11,3,2425.61,28,2562.8,2564.32,2.46,B,mid,0.78,5,0.65,14,0.82,2,0.52,27,-999,1.0,3,2,1,3.0,0.0,0.0,-1.0,-3.0,-1.0,111
11,3,2425.61,29,2567.12,2568.63,2.83,B,left,0.78,5,0.65,14,0.82,2,0.52,27,-999,2.0,3,1,2,3.0,0.0,0.0,-1.0,-3.0,-1.0,10
11,3,2425.61,30,2571.8,2573.31,4.06,B,left,0.78,4,0.68,14,0.76,3,0.66,13,-999,32.0,2,1,3,3.0,-1.0,3.0,-1.0,3.0,-1.0,110
11,3,2425.61,31,2577.71,2579.23,2.53,C,mid,0.19,52,0.59,16,0.81,12,-999.0,-999,-999,99.0,1,3,2,0.0,0.0,0.0,0.0,0.0,0.0,0
11,3,2425.61,32,2582.09,2583.61,5.14,B,right,0.78,4,0.62,15,0.76,3,0.6,14,-999,32.0,2,3,1,3.0,-1.0,-3.0,0.0,-3.0,-1.0,11
11,3,2425.61,33,2589.09,2590.61,2.39,B,mid,0.78,5,0.65,14,0.82,3,0.52,28,-999,1.0,1,2,3,3.0,0.0,0.0,-1.0,-3.0,0.0,11
11,3,2425.61,34,2593.34,2594.86,3.32,B,left,0.72,5,0.62,14,0.85,3,0.55,28,-999,2.0,3,1,2,-3.0,0.0,-3.0,-1.0,0.0,0.0,110
11,3,2425.61,35,2598.52,2600.04,6.81,B,left,0.75,4,0.65,15,0.73,3,0.63,14,-999,31.0,3,1,2,0.0,-1.0,0.0,0.0,3.0,-1.0,10
11,3,2425.61,36,2607.19,2608.7,14.0,B,right,0.72,5,0.68,14,0.7,4,0.66,13,-999,32.0,1,3,2,-3.0,0.0,3.0,-1.0,0.0,-1.0,1
11,3,2425.61,37,2623.03,2624.55,6.68,B,left,0.78,5,0.62,15,0.76,4,0.6,14,-999,32.0,2,1,3,3.0,0.0,-3.0,0.0,3.0,0.0,11
11,3,2425.61,38,2682.48,2683.99,2.35,B,right,0.72,5,0.65,15,0.7,4,0.63,14,-999,31.0,1,3,2,-3.0,0.0,0.0,0.0,-3.0,-1.0,110
11,3,2425.61,39,2686.68,2688.19,3.14,B,left,0.75,4,0.68,14,0.73,3,0.66,13,-999,31.0,2,1,3,0.0,-1.0,3.0,-1.0,0.0,-1.0,100
11,3,2425.61,40,2691.68,2693.19,2.57,B,right,0.78,5,0.65,15,0.76,4,0.63,14,-999,32.0,2,3,1,3.0,0.0,0.0,0.0,0.0,0.0,10
11,3,2425.61,41,2696.11,2697.62,5.44,B,mid,0.72,4,0.62,15,0.7,3,0.6,14,-999,32.0,3,2,1,-3.0,-1.0,-3.0,0.0,-3.0,-1.0,1
11,3,2425.61,42,2703.4,2704.92,6.71,B,left,0.78,4,0.62,15,0.76,3,0.6,14,-999,31.0,2,1,3,3.0,-1.0,-3.0,0.0,0.0,0.0,10
11,3,2425.61,43,2711.97,2713.48,3.82,C,mid,0.72,4,0.68,15,0.88,3,0.58,28,-999,2.0,3,1,2,-3.0,-1.0,3.0,0.0,3.0,0.0,100
11,3,2425.61,44,2717.65,2719.17,2.39,C,right,0.27,37,0.47,21,0.86,11,-999.0,-999,-999,99.0,1,2,3,0.0,0.0,0.0,0.0,0.0,0.0,100
11,3,2425.61,45,2721.9,2723.41,5.35,B,right,0.72,5,0.62,15,0.7,4,0.6,14,-999,32.0,2,3,1,-3.0,0.0,-3.0,0.0,0.0,0.0,0
11,3,2425.61,46,2729.1,2730.61,6.82,B,mid,0.78,4,0.65,15,0.76,3,0.63,14,-999,32.0,3,2,1,3.0,-1.0,0.0,0.0,-3.0,-1.0,11
11,3,2425.61,47,2737.78,2739.29,5.04,B,right,0.72,5,0.65,15,0.82,2,0.52,27,-999,1.0,1,3,2,-3.0,0.0,0.0,0.0,-3.0,-1.0,0
11,3,2425.61,48,2744.67,2746.19,5.04,B,left,0.75,4,0.68,14,0.85,2,0.55,27,-999,2.0,3,1,2,0.0,-1.0,3.0,-1.0,0.0,-1.0,110
11,3,2425.61,49,2751.57,2753.09,2.32,B,right,0.72,4,0.65,15,0.85,3,0.55,28,-999,2.0,1,3,2,-3.0,-1.0,0.0,0.0,0.0,0.0,100
11,3,2425.61,50,2755.75,2757.27,3.39,B,right,0.78,4,0.62,14,0.76,3,0.6,13,-999,32.0,1,3,2,3.0,-1.0,-3.0,-1.0,0.0,-1.0,111
11,3,2425.61,51,2761.0,2762.52,7.5,B,right,0.72,5,0.62,14,0.7,4,0.6,13,-999,32.0,2,3,1,-3.0,0.0,-3.0,-1.0,0.0,0.0,111
11,3,2425.61,52,2770.35,2771.87,3.09,B,mid,0.75,5,0.62,14,0.88,3,0.58,28,-999,2.0,3,2,1,0.0,0.0,-3.0,-1.0,3.0,0.0,101
11,3,2425.61,53,2775.3,2776.81,3.03,B,mid,0.72,5,0.68,14,0.88,3,0.58,28,-999,2.0,3,2,1,-3.0,0.0,3.0,-1.0,3.0,0.0,1
11,3,2425.61,54,2780.18,2781.7,2.53,C,mid,0.28,35,0.67,14,0.78,12,-999.0,-999,-999,99.0,3,1,2,0.0,0.0,0.0,0.0,0.0,0.0,100
11,3,2425.61,55,2784.56,2786.08,2.24,B,left,0.78,5,0.62,14,0.85,2,0.55,27,-999,1.0,2,1,3,3.0,0.0,-3.0,-1.0,0.0,-1.0,0
11,3,2425.61,56,2788.64,2790.16,1.62,B,right,0.75,4,0.62,15,0.88,3,0.58,28,-999,1.0,2,3,1,0.0,-1.0,-3.0,0.0,3.0,0.0,111
11,3,2425.61,57,2792.13,2793.64,1.51,B,mid,0.78,5,0.68,15,0.88,2,0.58,27,-999,1.0,3,2,1,3.0,0.0,3.0,0.0,3.0,-1.0,111
11,3,2425.61,58,2795.49,2797.01,3.23,B,left,0.75,4,0.68,14,0.73,3,0.66,13,-999,32.0,2,1,3,0.0,-1.0,3.0,-1.0,0.0,0.0,101
11,3,2425.61,59,2800.61,2802.12,1.13,B,right,0.72,4,0.65,15,0.7,3,0.63,14,-999,31.0,2,3,1,-3.0,-1.0,0.0,0.0,3.0,-1.0,101
11,3,2425.61,60,2803.59,2805.1,1.45,B,mid,0.75,5,0.62,15,0.88,2,0.58,27,-999,1.0,1,2,3,0.0,0.0,-3.0,0.0,3.0,-1.0,111
11,3,2425.61,61,2806.89,2808.4,4.23,B,left,0.72,5,0.68,15,0.82,2,0.52,27,-999,1.0,3,1,2,-3.0,0.0,3.0,0.0,-3.0,-1.0,100
11,3,2425.61,62,2812.97,2814.48,7.11,C,mid,0.72,4,0.62,14,0.88,3,0.58,28,-999,2.0,1,3,2,-3.0,-1.0,-3.0,-1.0,3.0,0.0,101
11,3,2425.61,63,2821.93,2823.45,6.46,B,right,0.27,37,0.61,16,0.89,11,-999.0,-999,-999,99.0,1,3,2,0.0,0.0,0.0,0.0,0.0,0.0,100
11,3,2425.61,64,2830.25,2831.76,1.47,B,right,0.75,4,0.68,15,0.88,3,0.58,28,-999,1.0,2,3,1,0.0,-1.0,3.0,0.0,3.0,0.0,101
11,3,2425.61,65,2833.56,2835.08,1.99,C,mid,0.75,4,0.62,15,0.73,3,0.6,14,-999,32.0,1,3,2,0.0,-1.0,-3.0,0.0,-3.0,0.0,111
11,3,2425.61,66,2837.39,2838.91,1.67,B,right,0.75,5,0.65,14,0.73,4,0.63,13,-999,31.0,2,3,1,0.0,0.0,0.0,-1.0,0.0,0.0,10
11,3,2425.61,67,2840.91,2842.43,4.39,B,mid,0.72,5,0.62,14,0.85,3,0.55,28,-999,2.0,3,2,1,-3.0,0.0,-3.0,-1.0,0.0,0.0,0
11,3,2425.61,68,2847.16,2848.67,3.17,B,right,0.72,4,0.65,15,0.7,3,0.63,14,-999,31.0,2,3,1,-3.0,-1.0,0.0,0.0,3.0,-1.0,111
11,3,2425.61,69,2852.17,2853.69,3.95,C,left,0.19,52,0.56,17,0.8,12,-999.0,-999,-999,99.0,2,3,1,0.0,0.0,0.0,0.0,0.0,0.0,10
11,3,2425.61,70,2857.97,2859.49,4.26,B,right,0.75,5,0.65,14,0.73,4,0.63,13,-999,31.0,1,3,2,0.0,0.0,0.0,-1.0,-3.0,-1.0,11
11,3,2425.61,71,2864.09,2865.6,1.89,B,right,0.72,4,0.65,14,0.7,3,0.63,13,-999,31.0,1,3,2,-3.0,-1.0,0.0,-1.0,3.0,-1.0,0
11,3,2425.61,72,2867.83,2869.35,2.52,B,left,0.75,4,0.65,14,0.73,3,0.63,13,-999,32.0,2,1,3,0.0,-1.0,0.0,-1.0,3.0,0.0,110
11,3,2425.61,73,2872.22,2873.73,3.28,B,left,0.78,5,0.65,15,0.76,4,0.63,14,-999,32.0,2,1,3,3.0,0.0,0.0,0.0,-3.0,-1.0,111
11,3,2425.61,74,2877.35,2878.86,2.28,B,left,0.78,4,0.62,15,0.85,2,0.55,27,-999,1.0,2,1,3,3.0,-1.0,-3.0,0.0,0.0,-1.0,111
11,3,2425.61,75,2881.48,2883.0,2.0,B,left,0.78,4,0.68,15,0.76,3,0.66,14,-999,31.0,3,1,2,3.0,-1.0,3.0,0.0,0.0,0.0,0
