subject,block,block_onset,trial,fixation_cross_onset,trial_onset,rt,choice,key,pA,mA,pB,mB,pCA,mCA,pCB,mCB,missing,condition,position_A,position_B,position_C,noise_Ap,noise_Am,noise_Bp,noise_Bm,noise_Cp,noise_Cm,attribute_positions
8,Practice,1808.73,P1,1808.78,1810.3,8.32,C,mid,0.78,7,0.62,17,0.85,3,0.55,24,-999,2.0,3,1,2,3.0,-2.0,-3.0,2.0,0.0,-1.0,1
8,Practice,1808.73,P2,1818.98,1820.5,18.84,A,left,0.72,7,0.62,16,0.88,5,0.58,26,-999,2.0,1,2,3,-3.0,-2.0,-3.0,1.0,3.0,1.0,10
8,Practice,1808.73,P3,1839.67,1841.19,6.39,A,mid,0.75,11,0.68,13,0.85,4,0.55,25,-999,1.0,2,3,1,0.0,2.0,3.0,-2.0,0.0,0.0,110
8,Practice,1808.73,P4,1847.92,1849.44,7.56,A,right,0.75,9,0.65,15,0.88,5,0.58,26,-999,1.0,3,1,2,0.0,0.0,0.0,0.0,3.0,1.0,100
8,Practice,1808.73,P5,1857.33,1858.85,11.56,A,left,0.72,11,0.62,13,0.85,6,0.55,27,-999,1.0,1,3,2,-3.0,2.0,-3.0,-2.0,0.0,2.0,101
8,Practice,1808.73,P6,1870.75,1872.26,17.45,A,mid,0.78,7,0.62,13,0.82,6,0.52,27,-999,2.0,2,3,1,3.0,-2.0,-3.0,-2.0,-3.0,2.0,110
8,Practice,1808.73,P7,1890.04,1891.56,17.16,B,left,0.75,7,0.65,17,0.85,5,0.55,26,-999,2.0,2,1,3,0.0,-2.0,0.0,2.0,0.0,1.0,111
8,Practice,1808.73,P8,1909.05,1910.57,8.9,A,right,0.72,8,0.68,15,0.82,6,0.52,27,-999,2.0,3,1,2,-3.0,-1.0,3.0,0.0,-3.0,2.0,110
8,Practice,1808.73,P9,1919.81,1921.33,6.09,A,right,0.78,8,0.62,16,0.88,5,0.58,26,-999,1.0,3,1,2,3.0,-1.0,-3.0,1.0,3.0,1.0,1
8,Practice,1808.73,P10,1927.76,1929.28,6.53,A,left,0.75,10,0.65,16,0.82,2,0.52,23,-999,2.0,1,2,3,0.0,1.0,0.0,1.0,-3.0,-2.0,101
8,Practice,1808.73,P11,1936.14,1937.66,12.47,A,mid,0.72,8,0.65,15,0.85,5,0.55,26,-999,2.0,2,3,1,-3.0,-1.0,0.0,0.0,0.0,1.0,0
8,Practice,1808.73,P12,1950.47,1951.99,5.11,B,right,0.72,8,0.68,15,0.85,5,0.55,26,-999,1.0,2,3,1,-3.0,-1.0,3.0,0.0,0.0,1.0,101
8,Practice,1808.73,P13,1957.43,1958.95,2.29,C,right,0.78,11,0.68,16,0.88,5,0.58,26,-999,1.0,2,1,3,3.0,2.0,3.0,1.0,3.0,1.0,111
8,Practice,1808.73,P14,1961.58,1963.1,3.55,B,mid,0.72,11,0.62,17,0.82,3,0.52,24,-999,2.0,3,2,1,-3.0,2.0,-3.0,2.0,-3.0,-1.0,0
8,Practice,1808.73,P15,1966.98,1968.5,2.54,A,mid,0.78,7,0.68,14,0.88,5,0.58,26,-999,2.0,2,3,1,3.0,-2.0,3.0,-1.0,3.0,1.0,10
8,Practice,1808.73,P16,1971.38,1972.9,3.68,B,left,0.78,7,0.65,13,0.82,2,0.52,23,-999,2.0,2,1,3,3.0,-2.0,0.0,-2.0,-3.0,-2.0,1
8,Practice,1808.73,P17,1976.91,1978.43,4.13,B,mid,0.72,10,0.65,13,0.82,5,0.52,26,-999,2.0,3,2,1,-3.0,1.0,0.0,-2.0,-3.0,1.0,110
8,Practice,1808.73,P18,1982.89,1984.41,0.9,C,mid,0.78,7,0.68,13,0.88,2,0.58,23,-999,2.0,3,1,2,3.0,-2.0,3.0,-2.0,3.0,-2.0,10
8,Practice,1808.73,P19,1985.66,1987.18,0.57,A,right,0.78,11,0.62,15,0.85,4,0.55,25,-999,1.0,3,1,2,3.0,2.0,-3.0,0.0,0.0,0.0,110
8,Practice,1808.73,P20,1988.09,1989.61,0.99,A,left,0.72,7,0.65,14,0.88,4,0.58,25,-999,1.0,1,3,2,-3.0,-2.0,0.0,-1.0,3.0,0.0,11
8,Practice,1808.73,P21,1990.94,1992.46,0.78,C,mid,0.78,9,0.65,16,0.85,2,0.55,23,-999,1.0,3,1,2,3.0,0.0,0.0,1.0,0.0,-2.0,0
8,Practice,1808.73,P22,1993.59,1995.11,3.43,A,left,0.72,9,0.62,15,0.85,2,0.55,23,-999,1.0,1,3,2,-3.0,0.0,-3.0,0.0,0.0,-2.0,10
8,Practice,1808.73,P23,1998.87,2000.39,3.81,A,right,0.72,7,0.65,13,0.88,3,0.58,24,-999,1.0,3,1,2,-3.0,-2.0,0.0,-2.0,3.0,-1.0,100
8,Practice,1808.73,P24,2004.54,2006.05,2.4,A,mid,0.78,7,0.65,13,0.82,5,0.52,26,-999,2.0,2,1,3,3.0,-2.0,0.0,-2.0,-3.0,1.0,10
8,Practice,1808.73,P25,2008.8,2010.32,1.76,A,mid,0.78,10,0.68,13,0.85,4,0.55,25,-999,1.0,2,3,1,3.0,1.0,3.0,-2.0,0.0,0.0,111
8,Estimation1,2145.61,E1,2145.69,2147.21,4.02,A,mid,0.75,11,0.65,15,0.85,-999,0.55,20,3,,2,1,3,,,,,,,11
8,Estimation1,2145.61,E2,2151.56,2153.07,2.5,B,right,0.75,8,0.65,15,0.85,-999,0.55,20,1,2.0,1,3,2,,,,,,,101
8,Estimation1,2145.61,E3,2155.9,2157.42,6.12,B,left,0.75,8,0.65,15,0.85,-999,0.55,28,3,,3,1,2,,,,,,,100
8,Estimation1,2145.61,E4,2163.87,2165.39,7.25,B,right,0.75,10,0.65,15,0.85,-999,0.55,28,1,2.0,2,3,1,,,,,,,101
8,Estimation1,2145.61,E5,2172.98,2174.5,7.42,A,left,0.75,10,0.65,15,0.85,-999,0.55,32,3,,1,2,3,,,,,,,1
8,Estimation1,2145.61,E6,2182.26,2183.78,2.92,B,left,0.75,9,0.65,15,0.85,-999,0.55,32,1,2.0,2,1,3,,,,,,,101
8,Estimation1,2145.61,E7,2187.03,2188.54,5.5,A,left,0.75,9,0.65,15,0.85,-999,0.55,34,3,,1,2,3,,,,,,,100
8,Estimation1,2145.61,E8,2194.38,2195.89,2.32,B,right,0.75,9,0.65,15,0.85,5,0.55,34,1,2.0,2,3,1,,,,,,,100
8,Estimation1,2145.61,E9,2198.56,2200.07,4.72,A,right,0.75,9,0.65,15,0.85,5,0.55,35,2,1.0,3,2,1,,,,,,,100
8,Estimation1,2145.61,E10,2205.14,2206.66,4.45,B,right,0.75,9,0.65,15,0.85,6,0.55,35,1,2.0,1,3,2,,,,,,,0
8,Estimation1,2145.61,E11,2211.44,2212.95,10.46,A,left,0.75,9,0.65,15,0.85,6,0.55,35,2,1.0,1,2,3,,,,,,,101
8,Estimation1,2145.61,E12,2223.75,2225.27,2.85,B,left,0.75,9,0.65,15,0.85,7,0.55,35,1,2.0,2,1,3,,,,,,,110
8,Estimation1,2145.61,E13,2228.45,2229.96,5.48,C,right,0.75,9,0.65,15,0.85,7,0.55,35,2,1.0,2,1,3,,,,,,,11
8,1,2238.0,1,2238.06,2239.58,5.85,C,mid,0.31,32,0.38,26,0.85,11,-999.0,-999,-999,99.0,1,3,2,0.0,0.0,0.0,0.0,0.0,0.0,0
8,1,2238.0,2,2245.78,2247.29,7.87,A,left,0.78,9,0.68,15,0.82,7,0.52,35,-999,1.0,1,3,2,3.0,0.0,3.0,0.0,-3.0,0.0,0
8,1,2238.0,3,2255.51,2257.02,13.03,A,mid,0.72,9,0.62,14,0.7,8,0.6,13,-999,32.0,2,1,3,-3.0,0.0,-3.0,-1.0,0.0,0.0,111
8,1,2238.0,4,2270.38,2271.9,13.79,A,left,0.75,8,0.68,14,0.73,7,0.66,13,-999,31.0,1,3,2,0.0,-1.0,3.0,-1.0,0.0,-1.0,110
8,1,2238.0,5,2286.03,2287.55,5.89,C,mid,0.27,37,0.61,16,0.89,11,-999.0,-999,-999,99.0,1,3,2,0.0,0.0,0.0,0.0,0.0,0.0,111
8,1,2238.0,6,2293.78,2295.29,4.22,C,left,0.32,31,0.6,16,0.78,12,-999.0,-999,-999,99.0,3,2,1,0.0,0.0,0.0,0.0,0.0,0.0,111
8,1,2238.0,7,2299.84,2301.36,7.3,C,mid,0.78,8,0.68,15,0.88,7,0.58,35,-999,1.0,1,3,2,3.0,-1.0,3.0,0.0,3.0,0.0,101
8,1,2238.0,8,2309.01,2310.52,12.85,A,left,0.72,9,0.62,15,0.7,8,0.6,14,-999,31.0,1,2,3,-3.0,0.0,-3.0,0.0,0.0,-1.0,101
8,1,2238.0,9,2323.72,2325.23,5.92,A,right,0.75,9,0.65,14,0.73,8,0.63,13,-999,31.0,3,2,1,0.0,0.0,0.0,-1.0,0.0,0.0,1
8,1,2238.0,10,2331.5,2333.01,6.73,C,mid,0.75,8,0.62,15,0.88,7,0.58,35,-999,1.0,1,3,2,0.0,-1.0,-3.0,0.0,3.0,0.0,100
8,1,2238.0,11,2340.08,2341.6,5.48,A,mid,0.78,9,0.68,15,0.76,8,0.66,14,-999,31.0,2,3,1,3.0,0.0,3.0,0.0,0.0,0.0,101
8,1,2238.0,12,2347.41,2348.93,4.77,C,left,0.27,37,0.47,21,0.86,11,-999.0,-999,-999,99.0,3,2,1,0.0,0.0,0.0,0.0,0.0,0.0,111
8,1,2238.0,13,2354.04,2355.56,13.69,B,right,0.78,9,0.65,15,0.76,8,0.63,14,-999,32.0,1,3,2,3.0,0.0,0.0,0.0,0.0,0.0,101
8,1,2238.0,14,2369.59,2371.1,11.14,A,right,0.72,9,0.65,14,0.7,8,0.63,13,-999,32.0,3,1,2,-3.0,0.0,0.0,-1.0,3.0,0.0,0
8,1,2238.0,15,2382.58,2384.1,4.35,A,right,0.72,9,0.68,15,0.82,6,0.52,34,-999,1.0,3,1,2,-3.0,0.0,3.0,0.0,-3.0,-1.0,0
8,1,2238.0,16,2388.78,2390.3,15.36,B,left,0.72,9,0.68,15,0.82,7,0.52,35,-999,2.0,3,1,2,-3.0,0.0,3.0,0.0,-3.0,0.0,111
8,1,2238.0,17,2405.99,2407.51,7.26,B,left,0.72,8,0.65,15,0.88,6,0.58,34,-999,2.0,3,1,2,-3.0,-1.0,0.0,0.0,3.0,-1.0,10
8,1,2238.0,18,2415.11,2416.62,6.36,A,right,0.72,8,0.62,15,0.7,7,0.6,14,-999,32.0,3,2,1,-3.0,-1.0,-3.0,0.0,-3.0,-1.0,110
8,1,2238.0,19,2423.32,2424.84,12.75,B,left,0.78,8,0.68,15,0.85,6,0.55,34,-999,1.0,2,1,3,3.0,-1.0,3.0,0.0,0.0,-1.0,0
8,1,2238.0,20,2437.93,2439.45,17.11,A,mid,0.72,9,0.65,15,0.7,8,0.63,14,-999,31.0,2,1,3,-3.0,0.0,0.0,0.0,-3.0,-1.0,11
8,1,2238.0,21,2456.89,2458.41,9.79,A,mid,0.78,9,0.65,14,0.82,6,0.52,34,-999,1.0,2,1,3,3.0,0.0,0.0,-1.0,-3.0,-1.0,101
8,1,2238.0,22,2468.54,2470.05,7.51,A,mid,0.75,9,0.65,15,0.85,7,0.55,35,-999,1.0,2,1,3,0.0,0.0,0.0,0.0,0.0,0.0,1
8,1,2238.0,23,2477.9,2479.42,5.54,A,mid,0.72,9,0.68,15,0.82,6,0.52,34,-999,1.0,2,3,1,-3.0,0.0,3.0,0.0,-3.0,-1.0,11
8,1,2238.0,24,2485.3,2486.82,3.21,A,left,0.75,9,0.65,15,0.82,6,0.52,34,-999,1.0,1,2,3,0.0,0.0,0.0,0.0,-3.0,-1.0,100
8,1,2238.0,25,2490.36,2491.88,7.6,A,left,0.72,9,0.62,15,0.7,8,0.6,14,-999,32.0,1,3,2,-3.0,0.0,-3.0,0.0,0.0,0.0,11
8,1,2238.0,26,2499.83,2501.34,4.22,A,left,0.75,9,0.65,15,0.73,8,0.63,14,-999,31.0,1,2,3,0.0,0.0,0.0,0.0,0.0,-1.0,101
8,1,2238.0,27,2505.91,2507.43,8.5,C,right,0.72,8,0.62,14,0.88,7,0.58,35,-999,2.0,1,2,3,-3.0,-1.0,-3.0,-1.0,3.0,0.0,111
8,1,2238.0,28,2516.26,2517.77,13.19,A,mid,0.78,9,0.65,14,0.82,6,0.52,34,-999,2.0,2,1,3,3.0,0.0,0.0,-1.0,-3.0,-1.0,101
8,1,2238.0,29,2531.3,2532.82,2.84,A,mid,0.75,9,0.62,15,0.88,6,0.58,34,-999,1.0,2,3,1,0.0,0.0,-3.0,0.0,3.0,-1.0,100
8,1,2238.0,30,2535.98,2537.5,4.32,A,mid,0.72,9,0.65,15,0.82,6,0.52,34,-999,1.0,2,1,3,-3.0,0.0,0.0,0.0,-3.0,-1.0,0
8,1,2238.0,31,2542.16,2543.68,8.78,A,mid,0.72,8,0.68,15,0.88,7,0.58,35,-999,2.0,2,3,1,-3.0,-1.0,3.0,0.0,3.0,0.0,110
8,1,2238.0,32,2552.79,2554.31,10.56,C,right,0.19,52,0.59,16,0.81,12,-999.0,-999,-999,99.0,1,2,3,0.0,0.0,0.0,0.0,0.0,0.0,10
8,1,2238.0,33,2565.21,2566.72,6.68,B,right,0.75,8,0.65,14,0.73,7,0.63,13,-999,32.0,1,3,2,0.0,-1.0,0.0,-1.0,3.0,0.0,100
8,1,2238.0,34,2573.74,2575.25,4.82,A,right,0.75,9,0.62,14,0.88,7,0.58,35,-999,2.0,3,1,2,0.0,0.0,-3.0,-1.0,3.0,0.0,110
8,1,2238.0,35,2580.42,2581.94,8.4,A,mid,0.72,9,0.65,15,0.82,6,0.52,34,-999,2.0,2,3,1,-3.0,0.0,0.0,0.0,-3.0,-1.0,0
8,1,2238.0,36,2590.68,2592.2,3.13,C,right,0.29,34,0.42,23,0.72,13,-999.0,-999,-999,99.0,2,1,3,0.0,0.0,0.0,0.0,0.0,0.0,111
8,1,2238.0,37,2595.66,2597.18,8.21,A,left,0.78,8,0.68,15,0.76,7,0.66,14,-999,31.0,1,2,3,3.0,-1.0,3.0,0.0,0.0,0.0,100
8,1,2238.0,38,2664.18,2665.69,6.17,A,left,0.72,9,0.62,15,0.7,8,0.6,14,-999,32.0,1,2,3,-3.0,0.0,-3.0,0.0,3.0,-1.0,110
8,1,2238.0,39,2672.21,2673.72,5.81,C,right,0.16,62,0.46,21,0.87,11,-999.0,-999,-999,99.0,1,2,3,0.0,0.0,0.0,0.0,0.0,0.0,11
8,1,2238.0,40,2679.89,2681.4,3.93,A,right,0.78,9,0.65,14,0.82,7,0.52,35,-999,1.0,3,1,2,3.0,0.0,0.0,-1.0,-3.0,0.0,110
8,1,2238.0,41,2685.67,2687.19,6.52,B,left,0.75,8,0.68,14,0.85,6,0.55,34,-999,2.0,2,1,3,0.0,-1.0,3.0,-1.0,0.0,-1.0,110
8,1,2238.0,42,2694.05,2695.57,7.25,B,right,0.72,9,0.68,14,0.88,7,0.58,35,-999,2.0,1,3,2,-3.0,0.0,3.0,-1.0,3.0,0.0,1
8,1,2238.0,43,2703.16,2704.68,4.7,A,left,0.75,8,0.62,15,0.73,7,0.6,14,-999,32.0,1,2,3,0.0,-1.0,-3.0,0.0,-3.0,0.0,110
8,1,2238.0,44,2709.71,2711.23,7.49,A,right,0.72,9,0.62,14,0.85,7,0.55,35,-999,2.0,3,1,2,-3.0,0.0,-3.0,-1.0,0.0,0.0,10
8,1,2238.0,45,2719.06,2720.57,4.45,A,right,0.78,9,0.68,15,0.88,6,0.58,34,-999,1.0,3,2,1,3.0,0.0,3.0,0.0,3.0,-1.0,1
8,1,2238.0,46,2725.37,2726.89,4.07,A,mid,0.78,9,0.62,14,0.85,6,0.55,34,-999,1.0,2,1,3,3.0,0.0,-3.0,-1.0,0.0,-1.0,10
8,1,2238.0,47,2731.29,2732.8,5.38,A,mid,0.78,8,0.68,14,0.76,7,0.66,13,-999,32.0,2,3,1,3.0,-1.0,3.0,-1.0,3.0,-1.0,11
8,1,2238.0,48,2738.52,2740.04,3.74,A,left,0.78,9,0.65,15,0.76,8,0.63,14,-999,32.0,1,2,3,3.0,0.0,0.0,0.0,-3.0,-1.0,10
8,1,2238.0,49,2744.12,2745.63,2.71,A,left,0.78,9,0.62,14,0.85,7,0.55,35,-999,2.0,1,2,3,3.0,0.0,-3.0,-1.0,0.0,0.0,11
8,1,2238.0,50,2748.68,2750.2,10.06,A,right,0.72,8,0.65,14,0.7,7,0.63,13,-999,31.0,3,2,1,-3.0,-1.0,0.0,-1.0,3.0,-1.0,0
8,1,2238.0,51,2760.6,2762.11,8.26,B,left,0.72,8,0.68,14,0.85,7,0.55,35,-999,2.0,2,1,3,-3.0,-1.0,3.0,-1.0,0.0,0.0,1
8,1,2238.0,52,2770.71,2772.22,11.9,A,mid,0.78,8,0.62,15,0.76,7,0.6,14,-999,31.0,2,1,3,3.0,-1.0,-3.0,0.0,0.0,0.0,10
8,1,2238.0,53,2784.45,2785.97,2.56,C,right,0.24,41,0.37,27,0.76,13,-999.0,-999,-999,99.0,1,2,3,0.0,0.0,0.0,0.0,0.0,0.0,0
8,1,2238.0,54,2788.87,2790.39,7.39,B,left,0.75,8,0.68,14,0.73,7,0.66,13,-999,32.0,2,1,3,0.0,-1.0,3.0,-1.0,0.0,0.0,100
8,1,2238.0,55,2798.12,2799.63,5.99,A,left,0.78,8,0.62,15,0.85,6,0.55,34,-999,1.0,1,2,3,3.0,-1.0,-3.0,0.0,0.0,-1.0,0
8,1,2238.0,56,2805.96,2807.48,6.63,C,left,0.32,31,0.48,20,0.85,11,-999.0,-999,-999,99.0,2,3,1,0.0,0.0,0.0,0.0,0.0,0.0,10
8,1,2238.0,57,2814.46,2815.98,6.95,A,left,0.75,9,0.65,15,0.73,8,0.63,14,-999,31.0,1,2,3,0.0,0.0,0.0,0.0,0.0,0.0,101
8,1,2238.0,58,2823.28,2824.79,20.4,A,left,0.72,8,0.65,15,0.7,7,0.63,14,-999,31.0,1,3,2,-3.0,-1.0,0.0,0.0,3.0,-1.0,111
8,1,2238.0,59,2845.52,2847.03,5.31,A,mid,0.75,9,0.65,14,0.85,6,0.55,34,-999,2.0,2,1,3,0.0,0.0,0.0,-1.0,0.0,-1.0,100
8,1,2238.0,60,2852.68,2854.2,4.44,A,right,0.78,9,0.62,15,0.76,8,0.6,14,-999,32.0,3,1,2,3.0,0.0,-3.0,0.0,3.0,0.0,110
8,1,2238.0,61,2858.98,2860.5,9.09,A,right,0.75,8,0.65,15,0.73,7,0.63,14,-999,31.0,3,2,1,0.0,-1.0,0.0,0.0,3.0,-1.0,1
8,1,2238.0,62,2869.93,2871.44,4.21,A,right,0.75,9,0.65,14,0.73,8,0.63,13,-999,31.0,3,1,2,0.0,0.0,0.0,-1.0,-3.0,-1.0,111
8,1,2238.0,63,2875.99,2877.51,6.51,A,right,0.75,8,0.68,15,0.88,7,0.58,35,-999,1.0,3,2,1,0.0,-1.0,3.0,0.0,3.0,0.0,0
8,1,2238.0,64,2884.36,2885.87,8.31,A,left,0.78,8,0.62,15,0.76,7,0.6,14,-999,32.0,1,2,3,3.0,-1.0,-3.0,0.0,-3.0,-1.0,0
8,1,2238.0,65,2894.52,2896.04,6.27,B,right,0.78,8,0.62,14,0.76,7,0.6,13,-999,32.0,2,3,1,3.0,-1.0,-3.0,-1.0,0.0,-1.0,110
8,1,2238.0,66,2902.65,2904.17,17.16,B,left,0.72,8,0.65,15,0.7,7,0.63,14,-999,31.0,2,1,3,-3.0,-1.0,0.0,0.0,3.0,-1.0,101
8,1,2238.0,67,2921.66,2923.18,5.0,C,right,0.28,35,0.67,14,0.78,12,-999.0,-999,-999,99.0,2,1,3,0.0,0.0,0.0,0.0,0.0,0.0,111
8,1,2238.0,68,2928.52,2930.04,7.94,B,right,0.72,9,0.68,14,0.7,8,0.66,13,-999,32.0,1,3,2,-3.0,0.0,3.0,-1.0,0.0,-1.0,10
8,1,2238.0,69,2938.32,2939.84,8.61,B,mid,0.72,8,0.68,14,0.7,7,0.66,13,-999,31.0,1,2,3,-3.0,-1.0,3.0,-1.0,-3.0,0.0,111
8,1,2238.0,70,2948.79,2950.3,5.98,B,left,0.78,8,0.65,15,0.76,7,0.63,14,-999,32.0,3,1,2,3.0,-1.0,0.0,0.0,-3.0,-1.0,111
8,1,2238.0,71,2956.62,2958.13,7.69,A,right,0.78,9,0.62,14,0.76,8,0.6,13,-999,31.0,3,2,1,3.0,0.0,-3.0,-1.0,-3.0,0.0,100
8,1,2238.0,72,2966.16,2967.68,5.78,A,right,0.72,9,0.62,14,0.85,7,0.55,35,-999,2.0,3,1,2,-3.0,0.0,-3.0,-1.0,0.0,0.0,0
8,1,2238.0,73,2973.79,2975.31,12.41,A,left,0.75,8,0.62,15,0.88,6,0.58,34,-999,2.0,1,3,2,0.0,-1.0,-3.0,0.0,3.0,-1.0,110
8,1,2238.0,74,2988.06,2989.57,5.85,C,mid,0.19,52,0.56,17,0.8,12,-999.0,-999,-999,99.0,3,1,2,0.0,0.0,0.0,0.0,0.0,0.0,110
8,1,2238.0,75,2995.77,2997.29,7.32,B,left,0.72,8,0.65,15,0.85,7,0.55,35,-999,2.0,2,1,3,-3.0,-1.0,0.0,0.0,0.0,0.0,110
8,Estimation2,3071.18,E1,3071.23,3072.75,3.4,A,right,0.75,11,0.65,15,0.85,-999,0.55,20,3,,3,2,1,,,,,,,110
8,Estimation2,3071.18,E2,3076.48,3077.99,3.21,B,mid,0.75,8,0.65,15,0.85,-999,0.55,20,1,2.0,3,2,1,,,,,,,100
8,Estimation2,3071.18,E3,3081.54,3083.06,7.25,B,left,0.75,8,0.65,15,0.85,-999,0.55,28,3,,2,1,3,,,,,,,110
8,Estimation2,3071.18,E4,3090.64,3092.16,2.43,B,mid,0.75,10,0.65,15,0.85,-999,0.55,28,1,2.0,1,2,3,,,,,,,0
8,Estimation2,3071.18,E5,3094.92,3096.44,2.29,A,right,0.75,10,0.65,15,0.85,-999,0.55,32,3,,3,1,2,,,,,,,1
8,Estimation2,3071.18,E6,3099.07,3100.59,4.9,B,right,0.75,9,0.65,15,0.85,-999,0.55,32,1,2.0,1,3,2,,,,,,,1
8,Estimation2,3071.18,E7,3105.84,3107.35,5.99,A,left,0.75,9,0.65,15,0.85,-999,0.55,34,3,,1,3,2,,,,,,,0
8,Estimation2,3071.18,E8,3113.68,3115.2,2.46,B,mid,0.75,9,0.65,15,0.85,5,0.55,34,1,2.0,1,2,3,,,,,,,0
8,Estimation2,3071.18,E9,3118.0,3119.51,2.97,A,right,0.75,9,0.65,15,0.85,5,0.55,35,2,1.0,3,1,2,,,,,,,101
8,Estimation2,3071.18,E10,3122.81,3124.33,4.28,B,left,0.75,9,0.65,15,0.85,6,0.55,35,1,2.0,3,1,2,,,,,,,10
8,Estimation2,3071.18,E11,3128.94,3130.46,5.27,A,right,0.75,9,0.65,15,0.85,6,0.55,35,2,1.0,3,2,1,,,,,,,110
8,Estimation2,3071.18,E12,3136.06,3137.57,5.74,B,left,0.75,9,0.65,15,0.85,7,0.55,35,1,2.0,3,1,2,,,,,,,110
8,Estimation2,3071.18,E13,3143.66,3145.17,6.49,A,left,0.75,9,0.65,15,0.85,7,0.55,35,2,1.0,1,2,3,,,,,,,101
8,2,3158.42,1,3158.48,3160.0,12.09,A,right,0.78,9,0.68,15,0.76,8,0.66,14,-999,31.0,3,1,2,3.0,0.0,3.0,0.0,0.0,0.0,11
8,2,3158.42,2,3172.43,3173.95,5.26,B,mid,0.72,8,0.68,14,0.85,7,0.55,35,-999,2.0,1,2,3,-3.0,-1.0,3.0,-1.0,0.0,0.0,101
8,2,3158.42,3,3179.54,3181.06,5.25,A,left,0.72,8,0.65,15,0.7,7,0.63,14,-999,31.0,1,3,2,-3.0,-1.0,0.0,0.0,3.0,-1.0,111
8,2,3158.42,4,3186.64,3188.16,2.46,C,right,0.24,41,0.37,27,0.76,13,-999.0,-999,-999,99.0,2,1,3,0.0,0.0,0.0,0.0,0.0,0.0,11
8,2,3158.42,5,3190.96,3192.47,8.4,A,mid,0.78,9,0.65,15,0.76,8,0.63,14,-999,32.0,2,1,3,3.0,0.0,0.0,0.0,0.0,0.0,100
8,2,3158.42,6,3201.2,3202.72,9.33,B,mid,0.72,9,0.68,15,0.82,6,0.52,34,-999,1.0,3,2,1,-3.0,0.0,3.0,0.0,-3.0,-1.0,0
8,2,3158.42,7,3212.38,3213.9,8.63,A,mid,0.78,8,0.62,15,0.76,7,0.6,14,-999,31.0,2,3,1,3.0,-1.0,-3.0,0.0,0.0,0.0,111
8,2,3158.42,8,3222.88,3224.4,7.79,A,right,0.72,9,0.62,15,0.7,8,0.6,14,-999,32.0,3,2,1,-3.0,0.0,-3.0,0.0,0.0,0.0,0
8,2,3158.42,9,3232.53,3234.04,8.53,A,mid,0.78,9,0.68,15,0.88,6,0.58,34,-999,1.0,2,1,3,3.0,0.0,3.0,0.0,3.0,-1.0,1
8,2,3158.42,10,3242.91,3244.42,11.61,A,right,0.72,9,0.68,15,0.82,6,0.52,34,-999,1.0,3,2,1,-3.0,0.0,3.0,0.0,-3.0,-1.0,10
8,2,3158.42,11,3256.37,3257.89,6.98,A,right,0.75,8,0.65,15,0.73,7,0.63,14,-999,31.0,3,1,2,0.0,-1.0,0.0,0.0,3.0,-1.0,110
8,2,3158.42,12,3265.2,3266.72,5.53,A,right,0.72,9,0.62,14,0.85,7,0.55,35,-999,2.0,3,1,2,-3.0,0.0,-3.0,-1.0,0.0,0.0,0
8,2,3158.42,13,3272.58,3274.1,4.01,A,mid,0.75,9,0.65,15,0.82,6,0.52,34,-999,1.0,2,1,3,0.0,0.0,0.0,0.0,-3.0,-1.0,110
8,2,3158.42,14,3278.45,3279.96,6.58,B,left,0.72,9,0.65,15,0.7,8,0.63,14,-999,31.0,3,1,2,-3.0,0.0,0.0,0.0,-3.0,-1.0,110
8,2,3158.42,15,3286.88,3288.39,4.28,B,right,0.72,8,0.68,14,0.7,7,0.66,13,-999,31.0,1,3,2,-3.0,-1.0,3.0,-1.0,-3.0,0.0,0
8,2,3158.42,16,3293.01,3294.52,4.04,A,right,0.75,9,0.65,15,0.73,8,0.63,14,-999,31.0,3,2,1,0.0,0.0,0.0,0.0,0.0,-1.0,1
8,2,3158.42,17,3298.91,3300.42,8.47,B,right,0.72,9,0.68,14,0.7,8,0.66,13,-999,32.0,2,3,1,-3.0,0.0,3.0,-1.0,0.0,-1.0,11
8,2,3158.42,18,3309.24,3310.75,8.68,B,right,0.75,8,0.68,14,0.73,7,0.66,13,-999,32.0,1,3,2,0.0,-1.0,3.0,-1.0,0.0,0.0,10
8,2,3158.42,19,3319.77,3321.28,7.21,A,right,0.78,8,0.68,15,0.85,6,0.55,34,-999,1.0,3,2,1,3.0,-1.0,3.0,0.0,0.0,-1.0,10
8,2,3158.42,20,3328.83,3330.35,7.38,C,mid,0.27,37,0.47,21,0.86,11,-999.0,-999,-999,99.0,3,1,2,0.0,0.0,0.0,0.0,0.0,0.0,11
8,2,3158.42,21,3338.06,3339.58,11.66,A,mid,0.72,9,0.65,14,0.7,8,0.63,13,-999,32.0,2,3,1,-3.0,0.0,0.0,-1.0,3.0,0.0,101
8,2,3158.42,22,3351.57,3353.09,4.2,C,left,0.16,62,0.46,21,0.87,11,-999.0,-999,-999,99.0,3,2,1,0.0,0.0,0.0,0.0,0.0,0.0,10
8,2,3158.42,23,3357.64,3359.15,6.68,A,right,0.78,8,0.62,15,0.76,7,0.6,14,-999,32.0,3,2,1,3.0,-1.0,-3.0,0.0,-3.0,-1.0,111
8,2,3158.42,24,3366.17,3367.68,6.5,B,left,0.72,8,0.68,15,0.88,7,0.58,35,-999,2.0,3,1,2,-3.0,-1.0,3.0,0.0,3.0,0.0,10
8,2,3158.42,25,3374.53,3376.05,9.04,A,mid,0.72,9,0.62,14,0.7,8,0.6,13,-999,32.0,2,3,1,-3.0,0.0,-3.0,-1.0,0.0,0.0,100
8,2,3158.42,26,3385.43,3386.95,4.11,A,left,0.75,8,0.62,15,0.73,7,0.6,14,-999,32.0,1,2,3,0.0,-1.0,-3.0,0.0,-3.0,0.0,11
8,2,3158.42,27,3391.39,3392.91,4.99,A,mid,0.75,8,0.65,14,0.73,7,0.63,13,-999,32.0,2,3,1,0.0,-1.0,0.0,-1.0,3.0,0.0,1
8,2,3158.42,28,3398.24,3399.76,4.61,A,left,0.78,9,0.62,14,0.85,6,0.55,34,-999,1.0,1,3,2,3.0,0.0,-3.0,-1.0,0.0,-1.0,0
8,2,3158.42,29,3404.71,3406.22,10.65,A,right,0.78,8,0.65,15,0.76,7,0.63,14,-999,32.0,3,1,2,3.0,-1.0,0.0,0.0,-3.0,-1.0,100
8,2,3158.42,30,3417.22,3418.74,2.69,C,right,0.19,52,0.59,16,0.81,12,-999.0,-999,-999,99.0,1,2,3,0.0,0.0,0.0,0.0,0.0,0.0,0
8,2,3158.42,31,3421.75,3423.27,5.63,A,mid,0.75,8,0.62,15,0.88,6,0.58,34,-999,2.0,2,1,3,0.0,-1.0,-3.0,0.0,3.0,-1.0,10
8,2,3158.42,32,3429.23,3430.75,4.05,A,left,0.78,9,0.62,14,0.85,7,0.55,35,-999,2.0,1,3,2,3.0,0.0,-3.0,-1.0,0.0,0.0,111
8,2,3158.42,33,3435.13,3436.65,5.67,A,left,0.78,9,0.65,14,0.82,7,0.52,35,-999,1.0,1,2,3,3.0,0.0,0.0,-1.0,-3.0,0.0,10
8,2,3158.42,34,3442.66,3444.18,4.69,A,right,0.78,9,0.65,14,0.82,6,0.52,34,-999,1.0,3,2,1,3.0,0.0,0.0,-1.0,-3.0,-1.0,100
8,2,3158.42,35,3449.21,3450.73,6.52,C,right,0.29,34,0.42,23,0.72,13,-999.0,-999,-999,99.0,1,2,3,0.0,0.0,0.0,0.0,0.0,0.0,101
8,2,3158.42,36,3457.59,3459.11,13.27,A,left,0.78,9,0.62,14,0.76,8,0.6,13,-999,31.0,1,3,2,3.0,0.0,-3.0,-1.0,-3.0,0.0,11
8,2,3158.42,37,3472.72,3474.23,3.46,A,left,0.72,9,0.62,15,0.7,8,0.6,14,-999,32.0,1,3,2,-3.0,0.0,-3.0,0.0,3.0,-1.0,11
8,2,3158.42,38,3512.12,3513.64,3.06,A,right,0.78,9,0.62,15,0.76,8,0.6,14,-999,32.0,3,1,2,3.0,0.0,-3.0,0.0,3.0,0.0,111
8,2,3158.42,39,3517.04,3518.55,5.54,A,left,0.72,9,0.65,15,0.82,6,0.52,34,-999,2.0,1,3,2,-3.0,0.0,0.0,0.0,-3.0,-1.0,111
8,2,3158.42,40,3524.43,3525.95,3.57,C,right,0.32,31,0.6,16,0.78,12,-999.0,-999,-999,99.0,2,1,3,0.0,0.0,0.0,0.0,0.0,0.0,10
8,2,3158.42,41,3529.87,3531.38,4.61,A,left,0.75,8,0.62,15,0.88,7,0.58,35,-999,1.0,1,2,3,0.0,-1.0,-3.0,0.0,3.0,0.0,0
8,2,3158.42,42,3536.33,3537.85,8.72,A,right,0.72,8,0.65,15,0.7,7,0.63,14,-999,31.0,3,1,2,-3.0,-1.0,0.0,0.0,3.0,-1.0,0
8,2,3158.42,43,3546.89,3548.41,5.23,A,left,0.72,8,0.62,14,0.88,7,0.58,35,-999,2.0,1,2,3,-3.0,-1.0,-3.0,-1.0,3.0,0.0,100
8,2,3158.42,44,3553.98,3555.49,4.68,A,mid,0.75,8,0.68,15,0.88,7,0.58,35,-999,1.0,2,1,3,0.0,-1.0,3.0,0.0,3.0,0.0,101
8,2,3158.42,45,3560.51,3562.02,4.13,A,left,0.75,9,0.65,14,0.85,6,0.55,34,-999,2.0,1,2,3,0.0,0.0,0.0,-1.0,0.0,-1.0,100
8,2,3158.42,46,3566.54,3568.05,4.69,A,mid,0.72,8,0.65,15,0.85,7,0.55,35,-999,2.0,2,3,1,-3.0,-1.0,0.0,0.0,0.0,0.0,11
8,2,3158.42,47,3573.09,3574.6,8.31,B,mid,0.75,8,0.68,14,0.85,6,0.55,34,-999,2.0,3,2,1,0.0,-1.0,3.0,-1.0,0.0,-1.0,11
8,2,3158.42,48,3583.25,3584.77,5.2,A,mid,0.78,8,0.62,15,0.85,6,0.55,34,-999,1.0,2,1,3,3.0,-1.0,-3.0,0.0,0.0,-1.0,10
8,2,3158.42,49,3590.3,3591.81,4.3,A,left,0.78,8,0.68,15,0.76,7,0.66,14,-999,31.0,1,3,2,3.0,-1.0,3.0,0.0,0.0,0.0,10
8,2,3158.42,50,3596.46,3597.98,5.75,A,mid,0.78,8,0.62,14,0.76,7,0.6,13,-999,32.0,2,1,3,3.0,-1.0,-3.0,-1.0,0.0,-1.0,110
8,2,3158.42,51,3604.08,3605.59,5.64,C,mid,0.31,32,0.38,26,0.85,11,-999.0,-999,-999,99.0,1,3,2,0.0,0.0,0.0,0.0,0.0,0.0,0
8,2,3158.42,52,3611.57,3613.09,5.63,C,right,0.78,8,0.68,15,0.88,7,0.58,35,-999,1.0,1,2,3,3.0,-1.0,3.0,0.0,3.0,0.0,110
8,2,3158.42,53,3619.05,3620.57,4.57,A,mid,0.75,8,0.68,14,0.73,7,0.66,13,-999,31.0,2,3,1,0.0,-1.0,3.0,-1.0,0.0,-1.0,111
8,2,3158.42,54,3625.49,3627.0,7.03,C,right,0.19,52,0.56,17,0.8,12,-999.0,-999,-999,99.0,2,1,3,0.0,0.0,0.0,0.0,0.0,0.0,101
8,2,3158.42,55,3634.37,3635.88,4.7,A,right,0.75,9,0.65,15,0.73,8,0.63,14,-999,31.0,3,2,1,0.0,0.0,0.0,0.0,0.0,0.0,100
8,2,3158.42,56,3640.91,3642.43,5.35,A,left,0.75,9,0.62,14,0.88,7,0.58,35,-999,2.0,1,2,3,0.0,0.0,-3.0,-1.0,3.0,0.0,111
8,2,3158.42,57,3648.11,3649.63,5.71,A,left,0.75,9,0.65,14,0.73,8,0.63,13,-999,31.0,1,2,3,0.0,0.0,0.0,-1.0,0.0,0.0,1
8,2,3158.42,58,3655.68,3657.19,5.5,A,right,0.78,9,0.65,14,0.82,6,0.52,34,-999,2.0,3,2,1,3.0,0.0,0.0,-1.0,-3.0,-1.0,0
8,2,3158.42,59,3663.02,3664.54,3.9,C,left,0.27,37,0.61,16,0.89,11,-999.0,-999,-999,99.0,2,3,1,0.0,0.0,0.0,0.0,0.0,0.0,10
8,2,3158.42,60,3668.79,3670.31,3.59,A,right,0.78,9,0.68,15,0.82,7,0.52,35,-999,1.0,3,1,2,3.0,0.0,3.0,0.0,-3.0,0.0,111
8,2,3158.42,61,3674.24,3675.75,5.25,A,right,0.72,9,0.62,15,0.7,8,0.6,14,-999,31.0,3,2,1,-3.0,0.0,-3.0,0.0,0.0,-1.0,110
8,2,3158.42,62,3681.33,3682.85,7.94,A,left,0.78,9,0.65,15,0.76,8,0.63,14,-999,32.0,1,2,3,3.0,0.0,0.0,0.0,-3.0,-1.0,100
8,2,3158.42,63,3691.13,3692.65,3.64,C,right,0.28,35,0.67,14,0.78,12,-999.0,-999,-999,99.0,1,2,3,0.0,0.0,0.0,0.0,0.0,0.0,0
8,2,3158.42,64,3696.63,3698.15,5.14,A,left,0.72,8,0.65,14,0.7,7,0.63,13,-999,31.0,1,2,3,-3.0,-1.0,0.0,-1.0,3.0,-1.0,10
8,2,3158.42,65,3703.63,3705.14,3.35,A,right,0.72,9,0.62,14,0.85,7,0.55,35,-999,2.0,3,1,2,-3.0,0.0,-3.0,-1.0,0.0,0.0,0
8,2,3158.42,66,3708.83,3710.34,4.54,A,mid,0.72,9,0.68,15,0.82,7,0.52,35,-999,2.0,2,3,1,-3.0,0.0,3.0,0.0,-3.0,0.0,110
8,2,3158.42,67,3715.22,3716.74,4.87,A,right,0.75,9,0.65,14,0.73,8,0.63,13,-999,31.0,3,2,1,0.0,0.0,0.0,-1.0,-3.0,-1.0,10
8,2,3158.42,68,3721.96,3723.47,2.72,A,right,0.75,9,0.62,15,0.88,6,0.58,34,-999,1.0,3,2,1,0.0,0.0,-3.0,0.0,3.0,-1.0,110
8,2,3158.42,69,3726.54,3728.05,5.6,A,right,0.72,9,0.65,15,0.82,6,0.52,34,-999,1.0,3,1,2,-3.0,0.0,0.0,0.0,-3.0,-1.0,10
8,2,3158.42,70,3734.0,3735.52,4.89,A,mid,0.72,9,0.68,14,0.88,7,0.58,35,-999,2.0,2,1,3,-3.0,0.0,3.0,-1.0,3.0,0.0,1
8,2,3158.42,71,3740.75,3742.27,3.02,A,right,0.78,8,0.68,14,0.76,7,0.66,13,-999,32.0,3,2,1,3.0,-1.0,3.0,-1.0,3.0,-1.0,110
8,2,3158.42,72,3745.61,3747.13,3.45,A,left,0.72,8,0.62,15,0.7,7,0.6,14,-999,32.0,1,3,2,-3.0,-1.0,-3.0,0.0,-3.0,-1.0,110
8,2,3158.42,73,3750.91,3752.43,4.93,A,right,0.72,8,0.65,15,0.88,6,0.58,34,-999,2.0,3,2,1,-3.0,-1.0,0.0,0.0,3.0,-1.0,110
8,2,3158.42,74,3757.69,3759.21,2.76,A,right,0.75,9,0.65,15,0.85,7,0.55,35,-999,1.0,3,2,1,0.0,0.0,0.0,0.0,0.0,0.0,11
8,2,3158.42,75,3762.31,3763.83,3.11,C,mid,0.32,31,0.48,20,0.85,11,-999.0,-999,-999,99.0,1,3,2,0.0,0.0,0.0,0.0,0.0,0.0,111
8,Estimation3,3841.71,E1,3841.77,3843.28,2.29,A,right,0.75,11,0.65,15,0.85,-999,0.55,20,3,,3,1,2,,,,,,,100
8,Estimation3,3841.71,E2,3845.9,3847.42,2.26,B,mid,0.75,8,0.65,15,0.85,-999,0.55,20,1,2.0,3,2,1,,,,,,,11
8,Estimation3,3841.71,E3,3850.0,3851.51,2.75,A,left,0.75,8,0.65,15,0.85,-999,0.55,28,3,,1,2,3,,,,,,,110
8,Estimation3,3841.71,E4,3854.6,3856.11,2.57,B,mid,0.75,6,0.65,15,0.85,-999,0.55,28,1,2.0,1,2,3,,,,,,,0
8,Estimation3,3841.71,E5,3859.03,3860.54,20.32,B,mid,0.75,6,0.65,15,0.85,-999,0.55,32,3,,3,2,1,,,,,,,111
8,Estimation3,3841.71,E6,3881.2,3882.72,3.24,B,left,0.75,7,0.65,15,0.85,-999,0.55,32,1,2.0,3,1,2,,,,,,,101
8,Estimation3,3841.71,E7,3886.3,3887.82,5.89,A,left,0.75,7,0.65,15,0.85,-999,0.55,34,3,,1,2,3,,,,,,,11
8,Estimation3,3841.71,E8,3894.05,3895.57,2.91,B,mid,0.75,7,0.65,15,0.85,4,0.55,34,1,2.0,3,2,1,,,,,,,0
8,Estimation3,3841.71,E9,3898.82,3900.33,3.55,A,left,0.75,7,0.65,15,0.85,4,0.55,35,2,1.0,1,3,2,,,,,,,0
8,Estimation3,3841.71,E10,3904.21,3905.73,3.64,B,right,0.75,7,0.65,15,0.85,5,0.55,35,1,2.0,2,3,1,,,,,,,10
8,Estimation3,3841.71,E11,3909.71,3911.23,4.79,A,mid,0.75,7,0.65,15,0.85,5,0.55,35,2,1.0,2,1,3,,,,,,,11
8,3,3922.18,1,3922.24,3923.76,6.84,B,mid,0.78,7,0.68,15,0.76,6,0.66,14,-999,31.0,3,2,1,3.0,0.0,3.0,0.0,0.0,0.0,111
8,3,3922.18,2,3930.94,3932.45,18.46,A,mid,0.78,7,0.68,15,0.82,5,0.52,35,-999,1.0,2,3,1,3.0,0.0,3.0,0.0,-3.0,0.0,111
8,3,3922.18,3,3951.25,3952.76,4.98,B,left,0.72,6,0.68,14,0.85,5,0.55,35,-999,2.0,2,1,3,-3.0,-1.0,3.0,-1.0,0.0,0.0,111
8,3,3922.18,4,3958.08,3959.6,6.08,A,mid,0.78,6,0.68,15,0.88,5,0.58,35,-999,1.0,2,3,1,3.0,-1.0,3.0,0.0,3.0,0.0,111
8,3,3922.18,5,3966.01,3967.53,5.83,B,mid,0.72,7,0.68,15,0.82,5,0.52,35,-999,2.0,1,2,3,-3.0,0.0,3.0,0.0,-3.0,0.0,11
8,3,3922.18,6,3973.69,3975.21,5.0,B,left,0.72,7,0.65,15,0.82,4,0.52,34,-999,2.0,3,1,2,-3.0,0.0,0.0,0.0,-3.0,-1.0,111
8,3,3922.18,7,3980.54,3982.06,9.21,A,left,0.75,7,0.65,14,0.85,4,0.55,34,-999,2.0,1,3,2,0.0,0.0,0.0,-1.0,0.0,-1.0,1
8,3,3922.18,8,3991.6,3993.12,7.83,B,left,0.72,7,0.65,14,0.7,6,0.63,13,-999,32.0,3,1,2,-3.0,0.0,0.0,-1.0,3.0,0.0,10
8,3,3922.18,9,4001.28,4002.8,9.36,A,left,0.78,7,0.62,14,0.76,6,0.6,13,-999,31.0,1,2,3,3.0,0.0,-3.0,-1.0,-3.0,0.0,11
8,3,3922.18,10,4012.5,4014.01,8.0,B,right,0.72,6,0.68,14,0.7,5,0.66,13,-999,31.0,1,3,2,-3.0,-1.0,3.0,-1.0,-3.0,0.0,10
8,3,3922.18,11,4022.34,4023.86,15.34,A,right,0.72,7,0.62,15,0.7,6,0.6,14,-999,31.0,3,1,2,-3.0,0.0,-3.0,0.0,0.0,-1.0,1
8,3,3922.18,12,4039.54,4041.05,5.23,B,right,0.72,7,0.68,15,0.82,4,0.52,34,-999,1.0,2,3,1,-3.0,0.0,3.0,0.0,-3.0,-1.0,101
8,3,3922.18,13,4046.62,4048.13,5.28,C,left,0.16,62,0.46,21,0.87,11,-999.0,-999,-999,99.0,3,2,1,0.0,0.0,0.0,0.0,0.0,0.0,110
8,3,3922.18,14,4053.75,4055.27,3.24,B,mid,0.75,6,0.62,15,0.88,4,0.58,34,-999,2.0,3,2,1,0.0,-1.0,-3.0,0.0,3.0,-1.0,111
8,3,3922.18,15,4058.85,4060.36,10.66,A,left,0.75,7,0.65,15,0.73,6,0.63,14,-999,31.0,1,2,3,0.0,0.0,0.0,0.0,0.0,-1.0,1
8,3,3922.18,16,4071.36,4072.88,5.71,A,left,0.78,7,0.62,14,0.85,5,0.55,35,-999,2.0,1,2,3,3.0,0.0,-3.0,-1.0,0.0,0.0,0
8,3,3922.18,17,4078.92,4080.44,6.98,A,mid,0.72,7,0.62,15,0.7,6,0.6,14,-999,32.0,2,3,1,-3.0,0.0,-3.0,0.0,3.0,-1.0,111
8,3,3922.18,18,4087.76,4089.27,7.04,B,right,0.72,6,0.65,15,0.88,4,0.58,34,-999,2.0,1,3,2,-3.0,-1.0,0.0,0.0,3.0,-1.0,11
8,3,3922.18,19,4096.65,4098.17,5.41,A,mid,0.75,7,0.65,15,0.85,5,0.55,35,-999,1.0,2,1,3,0.0,0.0,0.0,0.0,0.0,0.0,11
8,3,3922.18,20,4103.92,4105.43,3.14,C,right,0.29,34,0.42,23,0.72,13,-999.0,-999,-999,99.0,1,2,3,0.0,0.0,0.0,0.0,0.0,0.0,110
8,3,3922.18,21,4108.92,4110.43,6.79,A,right,0.75,7,0.65,15,0.73,6,0.63,14,-999,31.0,3,1,2,0.0,0.0,0.0,0.0,0.0,0.0,10
8,3,3922.18,22,4117.56,4119.08,4.84,C,right,0.32,31,0.6,16,0.78,12,-999.0,-999,-999,99.0,2,1,3,0.0,0.0,0.0,0.0,0.0,0.0,100
8,3,3922.18,23,4124.26,4125.78,4.2,C,right,0.31,32,0.38,26,0.85,11,-999.0,-999,-999,99.0,1,2,3,0.0,0.0,0.0,0.0,0.0,0.0,11
8,3,3922.18,24,4130.31,4131.82,7.87,B,right,0.78,6,0.68,15,0.85,4,0.55,34,-999,1.0,1,3,2,3.0,-1.0,3.0,0.0,0.0,-1.0,111
8,3,3922.18,25,4140.04,4141.55,8.36,A,mid,0.75,7,0.65,15,0.82,4,0.52,34,-999,1.0,2,3,1,0.0,0.0,0.0,0.0,-3.0,-1.0,11
8,3,3922.18,26,4150.25,4151.77,3.91,C,left,0.24,41,0.37,27,0.76,13,-999.0,-999,-999,99.0,2,3,1,0.0,0.0,0.0,0.0,0.0,0.0,10
8,3,3922.18,27,4156.02,4157.53,5.25,C,left,0.32,31,0.48,20,0.85,11,-999.0,-999,-999,99.0,3,2,1,0.0,0.0,0.0,0.0,0.0,0.0,101
8,3,3922.18,28,4163.11,4164.63,6.73,A,right,0.78,7,0.65,14,0.82,4,0.52,34,-999,1.0,3,2,1,3.0,0.0,0.0,-1.0,-3.0,-1.0,111
8,3,3922.18,29,4171.7,4173.21,9.68,A,right,0.78,7,0.65,14,0.82,4,0.52,34,-999,2.0,3,1,2,3.0,0.0,0.0,-1.0,-3.0,-1.0,10
8,3,3922.18,30,4183.22,4184.74,6.07,B,left,0.78,6,0.68,14,0.76,5,0.66,13,-999,32.0,2,1,3,3.0,-1.0,3.0,-1.0,3.0,-1.0,110
8,3,3922.18,31,4191.16,4192.67,1.95,C,mid,0.19,52,0.59,16,0.81,12,-999.0,-999,-999,99.0,1,3,2,0.0,0.0,0.0,0.0,0.0,0.0,0
8,3,3922.18,32,4194.95,4196.47,6.94,B,right,0.78,6,0.62,15,0.76,5,0.6,14,-999,32.0,2,3,1,3.0,-1.0,-3.0,0.0,-3.0,-1.0,11
8,3,3922.18,33,4203.75,4205.27,5.92,A,left,0.78,7,0.65,14,0.82,5,0.52,35,-999,1.0,1,2,3,3.0,0.0,0.0,-1.0,-3.0,0.0,11
8,3,3922.18,34,4211.53,4213.05,5.0,A,right,0.72,7,0.62,14,0.85,5,0.55,35,-999,2.0,3,1,2,-3.0,0.0,-3.0,-1.0,0.0,0.0,110
8,3,3922.18,35,4218.4,4219.91,6.67,A,right,0.75,6,0.65,15,0.73,5,0.63,14,-999,31.0,3,1,2,0.0,-1.0,0.0,0.0,3.0,-1.0,10
8,3,3922.18,36,4226.93,4228.44,4.18,A,left,0.72,7,0.68,14,0.7,6,0.66,13,-999,32.0,1,3,2,-3.0,0.0,3.0,-1.0,0.0,-1.0,1
8,3,3922.18,37,4232.96,4234.48,4.55,A,mid,0.78,7,0.62,15,0.76,6,0.6,14,-999,32.0,2,1,3,3.0,0.0,-3.0,0.0,3.0,0.0,11
8,3,3922.18,38,4275.3,4276.81,4.59,B,right,0.72,7,0.65,15,0.7,6,0.63,14,-999,31.0,1,3,2,-3.0,0.0,0.0,0.0,-3.0,-1.0,110
8,3,3922.18,39,4281.74,4283.26,5.11,B,left,0.75,6,0.68,14,0.73,5,0.66,13,-999,31.0,2,1,3,0.0,-1.0,3.0,-1.0,0.0,-1.0,100
8,3,3922.18,40,4288.71,4290.22,6.39,A,mid,0.78,7,0.65,15,0.76,6,0.63,14,-999,32.0,2,3,1,3.0,0.0,0.0,0.0,0.0,0.0,10
8,3,3922.18,41,4296.96,4298.47,5.39,B,mid,0.72,6,0.62,15,0.7,5,0.6,14,-999,32.0,3,2,1,-3.0,-1.0,-3.0,0.0,-3.0,-1.0,1
8,3,3922.18,42,4304.2,4305.72,7.63,A,mid,0.78,6,0.62,15,0.76,5,0.6,14,-999,31.0,2,1,3,3.0,-1.0,-3.0,0.0,0.0,0.0,10
8,3,3922.18,43,4313.68,4315.2,7.34,B,left,0.72,6,0.68,15,0.88,5,0.58,35,-999,2.0,3,1,2,-3.0,-1.0,3.0,0.0,3.0,0.0,100
8,3,3922.18,44,4322.88,4324.4,4.1,C,right,0.27,37,0.47,21,0.86,11,-999.0,-999,-999,99.0,1,2,3,0.0,0.0,0.0,0.0,0.0,0.0,100
8,3,3922.18,45,4328.85,4330.36,6.72,A,mid,0.72,7,0.62,15,0.7,6,0.6,14,-999,32.0,2,3,1,-3.0,0.0,-3.0,0.0,0.0,0.0,0
8,3,3922.18,46,4337.41,4338.93,4.91,B,mid,0.78,6,0.65,15,0.76,5,0.63,14,-999,32.0,3,2,1,3.0,-1.0,0.0,0.0,-3.0,-1.0,11
8,3,3922.18,47,4344.17,4345.69,24.87,A,left,0.72,7,0.65,15,0.82,4,0.52,34,-999,1.0,1,3,2,-3.0,0.0,0.0,0.0,-3.0,-1.0,0
8,3,3922.18,48,4370.9,4372.41,5.6,B,left,0.75,6,0.68,14,0.85,4,0.55,34,-999,2.0,3,1,2,0.0,-1.0,3.0,-1.0,0.0,-1.0,110
8,3,3922.18,49,4378.35,4379.86,8.05,B,right,0.72,6,0.65,15,0.85,5,0.55,35,-999,2.0,1,3,2,-3.0,-1.0,0.0,0.0,0.0,0.0,100
8,3,3922.18,50,4388.26,4389.78,5.23,A,left,0.78,6,0.62,14,0.76,5,0.6,13,-999,32.0,1,3,2,3.0,-1.0,-3.0,-1.0,0.0,-1.0,111
8,3,3922.18,51,4395.34,4396.86,5.52,A,mid,0.72,7,0.62,14,0.7,6,0.6,13,-999,32.0,2,3,1,-3.0,0.0,-3.0,-1.0,0.0,0.0,111
8,3,3922.18,52,4402.7,4404.22,9.38,A,right,0.75,7,0.62,14,0.88,5,0.58,35,-999,2.0,3,2,1,0.0,0.0,-3.0,-1.0,3.0,0.0,101
8,3,3922.18,53,4413.93,4415.45,6.6,B,mid,0.72,7,0.68,14,0.88,5,0.58,35,-999,2.0,3,2,1,-3.0,0.0,3.0,-1.0,3.0,0.0,1
8,3,3922.18,54,4422.4,4423.91,6.72,C,mid,0.28,35,0.67,14,0.78,12,-999.0,-999,-999,99.0,3,1,2,0.0,0.0,0.0,0.0,0.0,0.0,100
8,3,3922.18,55,4430.98,4432.5,4.45,A,mid,0.78,7,0.62,14,0.85,4,0.55,34,-999,1.0,2,1,3,3.0,0.0,-3.0,-1.0,0.0,-1.0,0
8,3,3922.18,56,4437.29,4438.81,14.25,B,right,0.75,6,0.62,15,0.88,5,0.58,35,-999,1.0,2,3,1,0.0,-1.0,-3.0,0.0,3.0,0.0,111
8,3,3922.18,57,4453.41,4454.92,8.23,A,right,0.78,7,0.68,15,0.88,4,0.58,34,-999,1.0,3,2,1,3.0,0.0,3.0,0.0,3.0,-1.0,111
8,3,3922.18,58,4463.5,4465.02,9.11,B,left,0.75,6,0.68,14,0.73,5,0.66,13,-999,32.0,2,1,3,0.0,-1.0,3.0,-1.0,0.0,0.0,101
8,3,3922.18,59,4474.47,4475.98,7.89,B,right,0.72,6,0.65,15,0.7,5,0.63,14,-999,31.0,2,3,1,-3.0,-1.0,0.0,0.0,3.0,-1.0,101
8,3,3922.18,60,4484.21,4485.73,7.4,A,left,0.75,7,0.62,15,0.88,4,0.58,34,-999,1.0,1,2,3,0.0,0.0,-3.0,0.0,3.0,-1.0,111
8,3,3922.18,61,4493.48,4494.99,13.03,B,left,0.72,7,0.68,15,0.82,4,0.52,34,-999,1.0,3,1,2,-3.0,0.0,3.0,0.0,-3.0,-1.0,100
8,3,3922.18,62,4508.35,4509.87,9.8,B,right,0.72,6,0.62,14,0.88,5,0.58,35,-999,2.0,1,3,2,-3.0,-1.0,-3.0,-1.0,3.0,0.0,101
8,3,3922.18,63,4520.02,4521.53,5.86,C,mid,0.27,37,0.61,16,0.89,11,-999.0,-999,-999,99.0,1,3,2,0.0,0.0,0.0,0.0,0.0,0.0,100
8,3,3922.18,64,4527.73,4529.25,9.34,B,right,0.75,6,0.68,15,0.88,5,0.58,35,-999,1.0,2,3,1,0.0,-1.0,3.0,0.0,3.0,0.0,101
8,3,3922.18,65,4538.93,4540.44,8.99,A,left,0.75,6,0.62,15,0.73,5,0.6,14,-999,32.0,1,3,2,0.0,-1.0,-3.0,0.0,-3.0,0.0,111
8,3,3922.18,66,4549.77,4551.29,13.59,B,right,0.75,7,0.65,14,0.73,6,0.63,13,-999,31.0,2,3,1,0.0,0.0,0.0,-1.0,0.0,0.0,10
8,3,3922.18,67,4565.22,4566.74,11.55,A,right,0.72,7,0.62,14,0.85,5,0.55,35,-999,2.0,3,2,1,-3.0,0.0,-3.0,-1.0,0.0,0.0,0
8,3,3922.18,68,4578.62,4580.13,7.4,B,right,0.72,6,0.65,15,0.7,5,0.63,14,-999,31.0,2,3,1,-3.0,-1.0,0.0,0.0,3.0,-1.0,111
8,3,3922.18,69,4587.86,4589.38,3.56,C,left,0.19,52,0.56,17,0.8,12,-999.0,-999,-999,99.0,2,3,1,0.0,0.0,0.0,0.0,0.0,0.0,10
8,3,3922.18,70,4593.28,4594.79,10.07,B,right,0.75,7,0.65,14,0.73,6,0.63,13,-999,31.0,1,3,2,0.0,0.0,0.0,-1.0,-3.0,-1.0,11
8,3,3922.18,71,4605.19,4606.71,6.29,B,right,0.72,6,0.65,14,0.7,5,0.63,13,-999,31.0,1,3,2,-3.0,-1.0,0.0,-1.0,3.0,-1.0,0
8,3,3922.18,72,4613.34,4614.85,7.92,B,left,0.75,6,0.65,14,0.73,5,0.63,13,-999,32.0,2,1,3,0.0,-1.0,0.0,-1.0,3.0,0.0,110
8,3,3922.18,73,4623.12,4624.63,7.0,B,left,0.78,7,0.65,15,0.76,6,0.63,14,-999,32.0,2,1,3,3.0,0.0,0.0,0.0,-3.0,-1.0,111
8,3,3922.18,74,4631.96,4633.48,6.21,A,mid,0.78,6,0.62,15,0.85,4,0.55,34,-999,1.0,2,1,3,3.0,-1.0,-3.0,0.0,0.0,-1.0,111
8,3,3922.18,75,4640.03,4641.55,11.73,B,left,0.78,6,0.68,15,0.76,5,0.66,14,-999,31.0,3,1,2,3.0,-1.0,3.0,0.0,0.0,0.0,0
