subject,block,block_onset,trial,fixation_cross_onset,trial_onset,rt,choice,key,pA,mA,pB,mB,pCA,mCA,pCB,mCB,missing,condition,position_A,position_B,position_C,noise_Ap,noise_Am,noise_Bp,noise_Bm,noise_Cp,noise_Cm,attribute_positions
32,Practice,373.14,P1,373.29,374.81,20.39,C,mid,0.78,7,0.62,17,0.85,3,0.55,24,-999,2.0,3,1,2,3.0,-2.0,-3.0,2.0,0.0,-1.0,1
32,Practice,373.14,P2,395.55,397.07,19.31,B,mid,0.72,7,0.62,16,0.88,5,0.58,26,-999,2.0,1,2,3,-3.0,-2.0,-3.0,1.0,3.0,1.0,10
32,Practice,373.14,P3,416.73,418.24,6.6,A,mid,0.75,11,0.68,13,0.85,4,0.55,25,-999,1.0,2,3,1,0.0,2.0,3.0,-2.0,0.0,0.0,110
32,Practice,373.14,P4,425.19,426.71,10.21,B,left,0.75,9,0.65,15,0.88,5,0.58,26,-999,1.0,3,1,2,0.0,0.0,0.0,0.0,3.0,1.0,100
32,Practice,373.14,P5,437.25,438.77,18.6,B,right,0.72,11,0.62,13,0.85,6,0.55,27,-999,1.0,1,3,2,-3.0,2.0,-3.0,-2.0,0.0,2.0,101
32,Practice,373.14,P6,457.71,459.23,13.22,C,left,0.78,7,0.62,13,0.82,6,0.52,27,-999,2.0,2,3,1,3.0,-2.0,-3.0,-2.0,-3.0,2.0,110
32,Practice,373.14,P7,472.79,474.31,18.82,B,left,0.75,7,0.65,17,0.85,5,0.55,26,-999,2.0,2,1,3,0.0,-2.0,0.0,2.0,0.0,1.0,111
32,Practice,373.14,P8,493.47,494.99,37.79,B,left,0.72,8,0.68,15,0.82,6,0.52,27,-999,2.0,3,1,2,-3.0,-1.0,3.0,0.0,-3.0,2.0,110
32,Practice,373.14,P9,533.12,534.64,8.26,B,left,0.78,8,0.62,16,0.88,5,0.58,26,-999,1.0,3,1,2,3.0,-1.0,-3.0,1.0,3.0,1.0,1
32,Practice,373.14,P10,543.24,544.75,8.76,B,mid,0.75,10,0.65,16,0.82,2,0.52,23,-999,2.0,1,2,3,0.0,1.0,0.0,1.0,-3.0,-2.0,101
32,Practice,373.14,P11,553.85,555.37,26.65,C,left,0.72,8,0.65,15,0.85,5,0.55,26,-999,2.0,2,3,1,-3.0,-1.0,0.0,0.0,0.0,1.0,0
32,Practice,373.14,P12,582.36,583.87,7.83,B,right,0.72,8,0.68,15,0.85,5,0.55,26,-999,1.0,2,3,1,-3.0,-1.0,3.0,0.0,0.0,1.0,101
32,Practice,373.14,P13,592.04,593.55,11.61,A,mid,0.78,11,0.68,16,0.88,5,0.58,26,-999,1.0,2,1,3,3.0,2.0,3.0,1.0,3.0,1.0,111
32,Practice,373.14,P14,605.5,607.02,10.11,C,left,0.72,11,0.62,17,0.82,3,0.52,24,-999,2.0,3,2,1,-3.0,2.0,-3.0,2.0,-3.0,-1.0,0
32,Practice,373.14,P15,617.46,618.98,21.86,C,left,0.78,7,0.68,14,0.88,5,0.58,26,-999,2.0,2,3,1,3.0,-2.0,3.0,-1.0,3.0,1.0,10
32,Practice,373.14,P16,641.17,642.69,10.4,B,left,0.78,7,0.65,13,0.82,2,0.52,23,-999,2.0,2,1,3,3.0,-2.0,0.0,-2.0,-3.0,-2.0,1
32,Practice,373.14,P17,653.44,654.95,12.51,C,left,0.72,10,0.65,13,0.82,5,0.52,26,-999,2.0,3,2,1,-3.0,1.0,0.0,-2.0,-3.0,1.0,110
32,Practice,373.14,P18,667.8,669.31,11.71,C,mid,0.78,7,0.68,13,0.88,2,0.58,23,-999,2.0,3,1,2,3.0,-2.0,3.0,-2.0,3.0,-2.0,10
32,Practice,373.14,P19,681.38,682.89,10.57,B,left,0.78,11,0.62,15,0.85,4,0.55,25,-999,1.0,3,1,2,3.0,2.0,-3.0,0.0,0.0,0.0,110
32,Practice,373.14,P20,693.81,695.32,7.11,B,right,0.72,7,0.65,14,0.88,4,0.58,25,-999,1.0,1,3,2,-3.0,-2.0,0.0,-1.0,3.0,0.0,11
32,Practice,373.14,P21,702.77,704.29,11.9,B,left,0.78,9,0.65,16,0.85,2,0.55,23,-999,1.0,3,1,2,3.0,0.0,0.0,1.0,0.0,-2.0,0
32,Practice,373.14,P22,716.53,718.05,9.23,A,left,0.72,9,0.62,15,0.85,2,0.55,23,-999,1.0,1,3,2,-3.0,0.0,-3.0,0.0,0.0,-2.0,10
32,Practice,373.14,P23,727.63,729.15,4.68,B,left,0.72,7,0.65,13,0.88,3,0.58,24,-999,1.0,3,1,2,-3.0,-2.0,0.0,-2.0,3.0,-1.0,100
32,Practice,373.14,P24,734.16,735.68,12.1,C,right,0.78,7,0.65,13,0.82,5,0.52,26,-999,2.0,2,1,3,3.0,-2.0,0.0,-2.0,-3.0,1.0,10
32,Practice,373.14,P25,748.12,749.64,10.05,A,mid,0.78,10,0.68,13,0.85,4,0.55,25,-999,1.0,2,3,1,3.0,1.0,3.0,-2.0,0.0,0.0,111
32,Estimation1,920.55,E1,920.62,922.13,6.04,B,left,0.75,11,0.65,15,0.85,-999,0.55,20,3,,2,1,3,,,,,,,11
32,Estimation1,920.55,E2,928.51,930.03,6.27,C,mid,0.75,12,0.65,15,0.85,-999,0.55,20,1,2.0,1,3,2,,,,,,,101
32,Estimation1,920.55,E3,936.65,938.16,7.27,B,left,0.75,12,0.65,15,0.85,-999,0.55,18,3,,3,1,2,,,,,,,100
32,Estimation1,920.55,E4,945.78,947.29,9.19,B,right,0.75,13,0.65,15,0.85,-999,0.55,18,1,2.0,2,3,1,,,,,,,101
32,Estimation1,920.55,E5,956.82,958.34,6.88,A,left,0.75,13,0.65,15,0.85,-999,0.55,19,3,,1,2,3,,,,,,,1
32,Estimation1,920.55,E6,965.55,967.07,9.85,C,right,0.75,13,0.65,15,0.85,7,0.55,19,1,2.0,2,1,3,,,,,,,101
32,Estimation1,920.55,E7,977.27,978.78,4.41,A,left,0.75,13,0.65,15,0.85,7,0.55,19,2,1.0,1,2,3,,,,,,,100
32,Estimation1,920.55,E8,983.53,985.05,7.05,C,left,0.75,13,0.65,15,0.85,9,0.55,19,1,2.0,2,3,1,,,,,,,100
32,Estimation1,920.55,E9,992.44,993.96,10.06,A,right,0.75,13,0.65,15,0.85,9,0.55,19,2,1.0,3,2,1,,,,,,,100
32,Estimation1,920.55,E10,1004.36,1005.87,7.29,C,mid,0.75,13,0.65,15,0.85,10,0.55,19,1,2.0,1,3,2,,,,,,,0
32,Estimation1,920.55,E11,1013.5,1015.02,11.9,A,left,0.75,13,0.65,15,0.85,10,0.55,19,2,1.0,1,2,3,,,,,,,101
32,Estimation1,920.55,E12,1027.27,1028.78,6.86,C,right,0.75,13,0.65,15,0.85,11,0.55,19,1,2.0,2,1,3,,,,,,,110
32,Estimation1,920.55,E13,1036.0,1037.51,5.88,C,right,0.75,13,0.65,15,0.85,11,0.55,19,2,1.0,2,1,3,,,,,,,11
32,1,1054.38,1,1054.46,1055.97,23.43,A,left,0.31,32,0.38,26,0.85,11,-999.0,-999,-999,99.0,1,3,2,0.0,0.0,0.0,0.0,0.0,0.0,0
32,1,1054.38,2,1079.75,1081.27,13.62,A,left,0.78,13,0.68,15,0.82,11,0.52,19,-999,1.0,1,3,2,3.0,0.0,3.0,0.0,-3.0,0.0,0
32,1,1054.38,3,1095.23,1096.74,8.42,A,mid,0.72,13,0.62,14,0.7,12,0.6,13,-999,32.0,2,1,3,-3.0,0.0,-3.0,-1.0,0.0,0.0,111
32,1,1054.38,4,1105.49,1107.01,23.28,A,left,0.75,12,0.68,14,0.73,11,0.66,13,-999,31.0,1,3,2,0.0,-1.0,3.0,-1.0,0.0,-1.0,110
32,1,1054.38,5,1130.63,1132.15,11.0,B,right,0.27,37,0.61,16,0.89,11,-999.0,-999,-999,99.0,1,3,2,0.0,0.0,0.0,0.0,0.0,0.0,111
32,1,1054.38,6,1143.5,1145.01,29.02,A,right,0.32,31,0.6,16,0.78,12,-999.0,-999,-999,99.0,3,2,1,0.0,0.0,0.0,0.0,0.0,0.0,111
32,1,1054.38,7,1174.37,1175.89,17.35,B,right,0.78,12,0.68,15,0.88,11,0.58,19,-999,1.0,1,3,2,3.0,-1.0,3.0,0.0,3.0,0.0,101
32,1,1054.38,8,1193.58,1195.1,10.61,A,left,0.72,13,0.62,15,0.7,12,0.6,14,-999,31.0,1,2,3,-3.0,0.0,-3.0,0.0,0.0,-1.0,101
32,1,1054.38,9,1206.04,1207.56,11.13,A,right,0.75,13,0.65,14,0.73,12,0.63,13,-999,31.0,3,2,1,0.0,0.0,0.0,-1.0,0.0,0.0,1
32,1,1054.38,10,1219.04,1220.56,23.42,B,right,0.75,12,0.62,15,0.88,11,0.58,19,-999,1.0,1,3,2,0.0,-1.0,-3.0,0.0,3.0,0.0,100
32,1,1054.38,11,1244.31,1245.83,13.24,A,mid,0.78,13,0.68,15,0.76,12,0.66,14,-999,31.0,2,3,1,3.0,0.0,3.0,0.0,0.0,0.0,101
32,1,1054.38,12,1259.41,1260.93,16.02,C,left,0.27,37,0.47,21,0.86,11,-999.0,-999,-999,99.0,3,2,1,0.0,0.0,0.0,0.0,0.0,0.0,111
32,1,1054.38,13,1277.29,1278.8,7.28,B,right,0.78,13,0.65,15,0.76,12,0.63,14,-999,32.0,1,3,2,3.0,0.0,0.0,0.0,0.0,0.0,101
32,1,1054.38,14,1286.42,1287.93,12.38,B,left,0.72,13,0.65,14,0.7,12,0.63,13,-999,32.0,3,1,2,-3.0,0.0,0.0,-1.0,3.0,0.0,0
32,1,1054.38,15,1300.65,1302.16,9.25,B,left,0.72,13,0.68,15,0.82,10,0.52,18,-999,1.0,3,1,2,-3.0,0.0,3.0,0.0,-3.0,-1.0,0
32,1,1054.38,16,1311.76,1313.28,8.6,C,mid,0.72,13,0.68,15,0.82,11,0.52,19,-999,2.0,3,1,2,-3.0,0.0,3.0,0.0,-3.0,0.0,111
32,1,1054.38,17,1322.22,1323.74,13.62,C,mid,0.72,12,0.65,15,0.88,10,0.58,18,-999,2.0,3,1,2,-3.0,-1.0,0.0,0.0,3.0,-1.0,10
32,1,1054.38,18,1337.7,1339.22,8.32,B,mid,0.72,12,0.62,15,0.7,11,0.6,14,-999,32.0,3,2,1,-3.0,-1.0,-3.0,0.0,-3.0,-1.0,110
32,1,1054.38,19,1347.88,1349.4,8.29,B,left,0.78,12,0.68,15,0.85,10,0.55,18,-999,1.0,2,1,3,3.0,-1.0,3.0,0.0,0.0,-1.0,0
32,1,1054.38,20,1358.03,1359.54,8.88,B,left,0.72,13,0.65,15,0.7,12,0.63,14,-999,31.0,2,1,3,-3.0,0.0,0.0,0.0,-3.0,-1.0,11
32,1,1054.38,21,1368.76,1370.27,19.57,A,mid,0.78,13,0.65,14,0.82,10,0.52,18,-999,1.0,2,1,3,3.0,0.0,0.0,-1.0,-3.0,-1.0,101
32,1,1054.38,22,1390.18,1391.7,11.22,B,left,0.75,13,0.65,15,0.85,11,0.55,19,-999,1.0,2,1,3,0.0,0.0,0.0,0.0,0.0,0.0,1
32,1,1054.38,23,1403.26,1404.78,6.26,B,right,0.72,13,0.68,15,0.82,10,0.52,18,-999,1.0,2,3,1,-3.0,0.0,3.0,0.0,-3.0,-1.0,11
32,1,1054.38,24,1411.38,1412.89,11.33,B,mid,0.75,13,0.65,15,0.82,10,0.52,18,-999,1.0,1,2,3,0.0,0.0,0.0,0.0,-3.0,-1.0,100
32,1,1054.38,25,1424.56,1426.07,7.8,B,right,0.72,13,0.62,15,0.7,12,0.6,14,-999,32.0,1,3,2,-3.0,0.0,-3.0,0.0,0.0,0.0,11
32,1,1054.38,26,1434.22,1435.74,11.4,A,left,0.75,13,0.65,15,0.73,12,0.63,14,-999,31.0,1,2,3,0.0,0.0,0.0,0.0,0.0,-1.0,101
32,1,1054.38,27,1447.48,1449.0,9.94,C,right,0.72,12,0.62,14,0.88,11,0.58,19,-999,2.0,1,2,3,-3.0,-1.0,-3.0,-1.0,3.0,0.0,111
32,1,1054.38,28,1459.28,1460.8,13.13,C,right,0.78,13,0.65,14,0.82,10,0.52,18,-999,2.0,2,1,3,3.0,0.0,0.0,-1.0,-3.0,-1.0,101
32,1,1054.38,29,1474.26,1475.77,9.6,B,right,0.75,13,0.62,15,0.88,10,0.58,18,-999,1.0,2,3,1,0.0,0.0,-3.0,0.0,3.0,-1.0,100
32,1,1054.38,30,1485.72,1487.24,6.11,B,left,0.72,13,0.65,15,0.82,10,0.52,18,-999,1.0,2,1,3,-3.0,0.0,0.0,0.0,-3.0,-1.0,0
32,1,1054.38,31,1493.69,1495.2,9.2,C,left,0.72,12,0.68,15,0.88,11,0.58,19,-999,2.0,2,3,1,-3.0,-1.0,3.0,0.0,3.0,0.0,110
32,1,1054.38,32,1504.73,1506.25,40.47,A,left,0.19,52,0.59,16,0.81,12,-999.0,-999,-999,99.0,1,2,3,0.0,0.0,0.0,0.0,0.0,0.0,10
32,1,1054.38,33,1547.05,1548.57,9.87,B,right,0.75,12,0.65,14,0.73,11,0.63,13,-999,32.0,1,3,2,0.0,-1.0,0.0,-1.0,3.0,0.0,100
32,1,1054.38,34,1558.78,1560.3,19.63,C,mid,0.75,13,0.62,14,0.88,11,0.58,19,-999,2.0,3,1,2,0.0,0.0,-3.0,-1.0,3.0,0.0,110
32,1,1054.38,35,1580.27,1581.79,8.6,C,left,0.72,13,0.65,15,0.82,10,0.52,18,-999,2.0,2,3,1,-3.0,0.0,0.0,0.0,-3.0,-1.0,0
32,1,1054.38,36,1590.72,1592.24,17.21,A,mid,0.29,34,0.42,23,0.72,13,-999.0,-999,-999,99.0,2,1,3,0.0,0.0,0.0,0.0,0.0,0.0,111
32,1,1054.38,37,1609.78,1611.3,13.44,B,mid,0.78,12,0.68,15,0.76,11,0.66,14,-999,31.0,1,2,3,3.0,-1.0,3.0,0.0,0.0,0.0,100
32,1,1054.38,38,1656.2,1657.72,10.09,B,mid,0.72,13,0.62,15,0.7,12,0.6,14,-999,32.0,1,2,3,-3.0,0.0,-3.0,0.0,3.0,-1.0,110
32,1,1054.38,39,1668.15,1669.66,15.81,B,mid,0.16,62,0.46,21,0.87,11,-999.0,-999,-999,99.0,1,2,3,0.0,0.0,0.0,0.0,0.0,0.0,11
32,1,1054.38,40,1685.81,1687.32,12.88,A,right,0.78,13,0.65,14,0.82,11,0.52,19,-999,1.0,3,1,2,3.0,0.0,0.0,-1.0,-3.0,0.0,110
32,1,1054.38,41,1700.54,1702.05,3.98,C,right,0.75,12,0.68,14,0.85,10,0.55,18,-999,2.0,2,1,3,0.0,-1.0,3.0,-1.0,0.0,-1.0,110
32,1,1054.38,42,1706.37,1707.88,7.11,C,mid,0.72,13,0.68,14,0.88,11,0.58,19,-999,2.0,1,3,2,-3.0,0.0,3.0,-1.0,3.0,0.0,1
32,1,1054.38,43,1715.33,1716.85,5.59,B,mid,0.75,12,0.62,15,0.73,11,0.6,14,-999,32.0,1,2,3,0.0,-1.0,-3.0,0.0,-3.0,0.0,110
32,1,1054.38,44,1722.78,1724.3,15.35,B,left,0.72,13,0.62,14,0.85,11,0.55,19,-999,2.0,3,1,2,-3.0,0.0,-3.0,-1.0,0.0,0.0,10
32,1,1054.38,45,1739.97,1741.49,10.42,B,mid,0.78,13,0.68,15,0.88,10,0.58,18,-999,1.0,3,2,1,3.0,0.0,3.0,0.0,3.0,-1.0,1
32,1,1054.38,46,1752.25,1753.77,12.51,A,mid,0.78,13,0.62,14,0.85,10,0.55,18,-999,1.0,2,1,3,3.0,0.0,-3.0,-1.0,0.0,-1.0,10
32,1,1054.38,47,1766.62,1768.13,8.33,B,right,0.78,12,0.68,14,0.76,11,0.66,13,-999,32.0,2,3,1,3.0,-1.0,3.0,-1.0,3.0,-1.0,11
32,1,1054.38,48,1776.8,1778.31,10.07,B,mid,0.78,13,0.65,15,0.76,12,0.63,14,-999,32.0,1,2,3,3.0,0.0,0.0,0.0,-3.0,-1.0,10
32,1,1054.38,49,1788.73,1790.24,11.7,C,right,0.78,13,0.62,14,0.85,11,0.55,19,-999,2.0,1,2,3,3.0,0.0,-3.0,-1.0,0.0,0.0,11
32,1,1054.38,50,1802.29,1803.8,8.33,A,right,0.72,12,0.65,14,0.7,11,0.63,13,-999,31.0,3,2,1,-3.0,-1.0,0.0,-1.0,3.0,-1.0,0
32,1,1054.38,51,1812.48,1814.0,8.33,C,right,0.72,12,0.68,14,0.85,11,0.55,19,-999,2.0,2,1,3,-3.0,-1.0,3.0,-1.0,0.0,0.0,1
32,1,1054.38,52,1822.66,1824.18,13.46,B,left,0.78,12,0.62,15,0.76,11,0.6,14,-999,31.0,2,1,3,3.0,-1.0,-3.0,0.0,0.0,0.0,10
32,1,1054.38,53,1837.98,1839.49,20.12,A,left,0.24,41,0.37,27,0.76,13,-999.0,-999,-999,99.0,1,2,3,0.0,0.0,0.0,0.0,0.0,0.0,0
32,1,1054.38,54,1859.95,1861.47,9.56,B,left,0.75,12,0.68,14,0.73,11,0.66,13,-999,32.0,2,1,3,0.0,-1.0,3.0,-1.0,0.0,0.0,100
32,1,1054.38,55,1871.37,1872.88,6.31,B,mid,0.78,12,0.62,15,0.85,10,0.55,18,-999,1.0,1,2,3,3.0,-1.0,-3.0,0.0,0.0,-1.0,0
32,1,1054.38,56,1879.53,1881.05,38.19,B,right,0.32,31,0.48,20,0.85,11,-999.0,-999,-999,99.0,2,3,1,0.0,0.0,0.0,0.0,0.0,0.0,10
32,1,1054.38,57,1919.57,1921.08,11.68,A,left,0.75,13,0.65,15,0.73,12,0.63,14,-999,31.0,1,2,3,0.0,0.0,0.0,0.0,0.0,0.0,101
32,1,1054.38,58,1933.1,1934.61,6.15,B,right,0.72,12,0.65,15,0.7,11,0.63,14,-999,31.0,1,3,2,-3.0,-1.0,0.0,0.0,3.0,-1.0,111
32,1,1054.38,59,1941.09,1942.61,14.11,C,right,0.75,13,0.65,14,0.85,10,0.55,18,-999,2.0,2,1,3,0.0,0.0,0.0,-1.0,0.0,-1.0,100
32,1,1054.38,60,1957.06,1958.57,10.55,B,left,0.78,13,0.62,15,0.76,12,0.6,14,-999,32.0,3,1,2,3.0,0.0,-3.0,0.0,3.0,0.0,110
32,1,1054.38,61,1969.45,1970.97,6.22,A,right,0.75,12,0.65,15,0.73,11,0.63,14,-999,31.0,3,2,1,0.0,-1.0,0.0,0.0,3.0,-1.0,1
32,1,1054.38,62,1977.53,1979.05,10.16,A,right,0.75,13,0.65,14,0.73,12,0.63,13,-999,31.0,3,1,2,0.0,0.0,0.0,-1.0,-3.0,-1.0,111
32,1,1054.38,63,1989.54,1991.06,5.47,B,mid,0.75,12,0.68,15,0.88,11,0.58,19,-999,1.0,3,2,1,0.0,-1.0,3.0,0.0,3.0,0.0,0
32,1,1054.38,64,1996.88,1998.39,13.31,B,mid,0.78,12,0.62,15,0.76,11,0.6,14,-999,32.0,1,2,3,3.0,-1.0,-3.0,0.0,-3.0,-1.0,0
32,1,1054.38,65,2012.04,2013.55,12.32,B,right,0.78,12,0.62,14,0.76,11,0.6,13,-999,32.0,2,3,1,3.0,-1.0,-3.0,-1.0,0.0,-1.0,110
32,1,1054.38,66,2026.22,2027.73,8.86,A,mid,0.72,12,0.65,15,0.7,11,0.63,14,-999,31.0,2,1,3,-3.0,-1.0,0.0,0.0,3.0,-1.0,101
32,1,1054.38,67,2036.93,2038.45,8.79,A,mid,0.28,35,0.67,14,0.78,12,-999.0,-999,-999,99.0,2,1,3,0.0,0.0,0.0,0.0,0.0,0.0,111
32,1,1054.38,68,2047.58,2049.09,11.56,A,left,0.72,13,0.68,14,0.7,12,0.66,13,-999,32.0,1,3,2,-3.0,0.0,3.0,-1.0,0.0,-1.0,10
32,1,1054.38,69,2060.99,2062.5,10.15,B,mid,0.72,12,0.68,14,0.7,11,0.66,13,-999,31.0,1,2,3,-3.0,-1.0,3.0,-1.0,-3.0,0.0,111
32,1,1054.38,70,2073.0,2074.52,8.89,B,left,0.78,12,0.65,15,0.76,11,0.63,14,-999,32.0,3,1,2,3.0,-1.0,0.0,0.0,-3.0,-1.0,111
32,1,1054.38,71,2083.75,2085.26,12.83,A,right,0.78,13,0.62,14,0.76,12,0.6,13,-999,31.0,3,2,1,3.0,0.0,-3.0,-1.0,-3.0,0.0,100
32,1,1054.38,72,2098.44,2099.96,8.17,C,mid,0.72,13,0.62,14,0.85,11,0.55,19,-999,2.0,3,1,2,-3.0,0.0,-3.0,-1.0,0.0,0.0,0
32,1,1054.38,73,2108.47,2109.99,8.94,C,mid,0.75,12,0.62,15,0.88,10,0.58,18,-999,2.0,1,3,2,0.0,-1.0,-3.0,0.0,3.0,-1.0,110
32,1,1054.38,74,2119.27,2120.79,14.74,B,left,0.19,52,0.56,17,0.8,12,-999.0,-999,-999,99.0,3,1,2,0.0,0.0,0.0,0.0,0.0,0.0,110
32,1,1054.38,75,2135.86,2137.38,14.45,C,right,0.72,12,0.65,15,0.85,11,0.55,19,-999,2.0,2,1,3,-3.0,-1.0,0.0,0.0,0.0,0.0,110
32,Estimation2,2257.17,E1,2257.24,2258.76,3.64,B,mid,0.75,11,0.65,15,0.85,-999,0.55,20,3,,3,2,1,,,,,,,110
32,Estimation2,2257.17,E2,2262.72,2264.24,6.25,B,mid,0.75,12,0.65,15,0.85,-999,0.55,20,1,2.0,3,2,1,,,,,,,100
32,Estimation2,2257.17,E3,2270.84,2272.35,4.89,B,left,0.75,12,0.65,15,0.85,-999,0.55,28,3,,2,1,3,,,,,,,110
32,Estimation2,2257.17,E4,2277.59,2279.1,3.26,C,right,0.75,13,0.65,15,0.85,-999,0.55,28,1,2.0,1,2,3,,,,,,,0
32,Estimation2,2257.17,E5,2282.7,2284.22,5.9,B,left,0.75,13,0.65,15,0.85,-999,0.55,24,3,,3,1,2,,,,,,,1
32,Estimation2,2257.17,E6,2290.45,2291.96,3.92,C,mid,0.75,13,0.65,15,0.85,7,0.55,24,1,2.0,1,3,2,,,,,,,1
32,Estimation2,2257.17,E7,2296.23,2297.75,4.89,A,left,0.75,13,0.65,15,0.85,7,0.55,22,2,1.0,1,3,2,,,,,,,0
32,Estimation2,2257.17,E8,2302.98,2304.49,4.13,C,right,0.75,13,0.65,15,0.85,9,0.55,22,1,2.0,1,2,3,,,,,,,0
32,Estimation2,2257.17,E9,2308.96,2310.48,5.11,A,right,0.75,13,0.65,15,0.85,9,0.55,21,2,1.0,3,1,2,,,,,,,101
32,Estimation2,2257.17,E10,2315.92,2317.44,9.33,C,mid,0.75,13,0.65,15,0.85,10,0.55,21,1,2.0,3,1,2,,,,,,,10
32,Estimation2,2257.17,E11,2327.12,2328.64,5.41,A,right,0.75,13,0.65,15,0.85,10,0.55,21,2,1.0,3,2,1,,,,,,,110
32,Estimation2,2257.17,E12,2334.39,2335.9,5.31,C,mid,0.75,13,0.65,15,0.85,11,0.55,21,1,2.0,3,1,2,,,,,,,110
32,Estimation2,2257.17,E13,2341.55,2343.07,4.45,A,left,0.75,13,0.65,15,0.85,11,0.55,21,2,1.0,1,2,3,,,,,,,101
32,2,2352.14,1,2352.21,2353.73,6.23,A,right,0.78,13,0.68,15,0.76,12,0.66,14,-999,31.0,3,1,2,3.0,0.0,3.0,0.0,0.0,0.0,11
32,2,2352.14,2,2360.31,2361.83,9.34,C,right,0.72,12,0.68,14,0.85,11,0.55,21,-999,2.0,1,2,3,-3.0,-1.0,3.0,-1.0,0.0,0.0,101
32,2,2352.14,3,2371.51,2373.02,5.66,A,left,0.72,12,0.65,15,0.7,11,0.63,14,-999,31.0,1,3,2,-3.0,-1.0,0.0,0.0,3.0,-1.0,111
32,2,2352.14,4,2379.02,2380.54,13.35,A,mid,0.24,41,0.37,27,0.76,13,-999.0,-999,-999,99.0,2,1,3,0.0,0.0,0.0,0.0,0.0,0.0,11
32,2,2352.14,5,2394.22,2395.73,9.91,B,left,0.78,13,0.65,15,0.76,12,0.63,14,-999,32.0,2,1,3,3.0,0.0,0.0,0.0,0.0,0.0,100
32,2,2352.14,6,2405.98,2407.5,8.84,B,mid,0.72,13,0.68,15,0.82,10,0.52,20,-999,1.0,3,2,1,-3.0,0.0,3.0,0.0,-3.0,-1.0,0
32,2,2352.14,7,2416.68,2418.19,5.5,A,mid,0.78,12,0.62,15,0.76,11,0.6,14,-999,31.0,2,3,1,3.0,-1.0,-3.0,0.0,0.0,0.0,111
32,2,2352.14,8,2424.02,2425.54,7.18,B,mid,0.72,13,0.62,15,0.7,12,0.6,14,-999,32.0,3,2,1,-3.0,0.0,-3.0,0.0,0.0,0.0,0
32,2,2352.14,9,2433.05,2434.57,7.86,B,left,0.78,13,0.68,15,0.88,10,0.58,20,-999,1.0,2,1,3,3.0,0.0,3.0,0.0,3.0,-1.0,1
32,2,2352.14,10,2442.77,2444.28,9.26,B,mid,0.72,13,0.68,15,0.82,10,0.52,20,-999,1.0,3,2,1,-3.0,0.0,3.0,0.0,-3.0,-1.0,10
32,2,2352.14,11,2453.88,2455.4,6.97,A,right,0.75,12,0.65,15,0.73,11,0.63,14,-999,31.0,3,1,2,0.0,-1.0,0.0,0.0,3.0,-1.0,110
32,2,2352.14,12,2462.71,2464.23,4.95,C,mid,0.72,13,0.62,14,0.85,11,0.55,21,-999,2.0,3,1,2,-3.0,0.0,-3.0,-1.0,0.0,0.0,0
32,2,2352.14,13,2469.54,2471.06,6.14,B,left,0.75,13,0.65,15,0.82,10,0.52,20,-999,1.0,2,1,3,0.0,0.0,0.0,0.0,-3.0,-1.0,110
32,2,2352.14,14,2477.54,2479.06,8.17,B,left,0.72,13,0.65,15,0.7,12,0.63,14,-999,31.0,3,1,2,-3.0,0.0,0.0,0.0,-3.0,-1.0,110
32,2,2352.14,15,2487.57,2489.09,6.79,A,left,0.72,12,0.68,14,0.7,11,0.66,13,-999,31.0,1,3,2,-3.0,-1.0,3.0,-1.0,-3.0,0.0,0
32,2,2352.14,16,2496.22,2497.73,9.67,B,mid,0.75,13,0.65,15,0.73,12,0.63,14,-999,31.0,3,2,1,0.0,0.0,0.0,0.0,0.0,-1.0,1
32,2,2352.14,17,2507.75,2509.26,7.6,B,right,0.72,13,0.68,14,0.7,12,0.66,13,-999,32.0,2,3,1,-3.0,0.0,3.0,-1.0,0.0,-1.0,11
32,2,2352.14,18,2517.19,2518.71,5.68,B,right,0.75,12,0.68,14,0.73,11,0.66,13,-999,32.0,1,3,2,0.0,-1.0,3.0,-1.0,0.0,0.0,10
32,2,2352.14,19,2524.72,2526.24,10.51,B,mid,0.78,12,0.68,15,0.85,10,0.55,20,-999,1.0,3,2,1,3.0,-1.0,3.0,0.0,0.0,-1.0,10
32,2,2352.14,20,2537.09,2538.6,29.47,A,right,0.27,37,0.47,21,0.86,11,-999.0,-999,-999,99.0,3,1,2,0.0,0.0,0.0,0.0,0.0,0.0,11
32,2,2352.14,21,2568.41,2569.93,7.68,A,mid,0.72,13,0.65,14,0.7,12,0.63,13,-999,32.0,2,3,1,-3.0,0.0,0.0,-1.0,3.0,0.0,101
32,2,2352.14,22,2577.96,2579.47,15.5,B,mid,0.16,62,0.46,21,0.87,11,-999.0,-999,-999,99.0,3,2,1,0.0,0.0,0.0,0.0,0.0,0.0,10
32,2,2352.14,23,2595.32,2596.84,5.85,B,mid,0.78,12,0.62,15,0.76,11,0.6,14,-999,32.0,3,2,1,3.0,-1.0,-3.0,0.0,-3.0,-1.0,111
32,2,2352.14,24,2603.02,2604.53,5.85,C,mid,0.72,12,0.68,15,0.88,11,0.58,21,-999,2.0,3,1,2,-3.0,-1.0,3.0,0.0,3.0,0.0,10
32,2,2352.14,25,2610.71,2612.23,8.83,B,right,0.72,13,0.62,14,0.7,12,0.6,13,-999,32.0,2,3,1,-3.0,0.0,-3.0,-1.0,0.0,0.0,100
32,2,2352.14,26,2621.39,2622.91,21.71,B,mid,0.75,12,0.62,15,0.73,11,0.6,14,-999,32.0,1,2,3,0.0,-1.0,-3.0,0.0,-3.0,0.0,11
32,2,2352.14,27,2644.95,2646.47,7.68,B,right,0.75,12,0.65,14,0.73,11,0.63,13,-999,32.0,2,3,1,0.0,-1.0,0.0,-1.0,3.0,0.0,1
32,2,2352.14,28,2654.48,2656.0,7.39,A,left,0.78,13,0.62,14,0.85,10,0.55,20,-999,1.0,1,3,2,3.0,0.0,-3.0,-1.0,0.0,-1.0,0
32,2,2352.14,29,2663.73,2665.25,5.33,B,left,0.78,12,0.65,15,0.76,11,0.63,14,-999,32.0,3,1,2,3.0,-1.0,0.0,0.0,-3.0,-1.0,100
32,2,2352.14,30,2670.91,2672.43,10.54,A,left,0.19,52,0.59,16,0.81,12,-999.0,-999,-999,99.0,1,2,3,0.0,0.0,0.0,0.0,0.0,0.0,0
32,2,2352.14,31,2683.31,2684.82,8.98,C,right,0.75,12,0.62,15,0.88,10,0.58,20,-999,2.0,2,1,3,0.0,-1.0,-3.0,0.0,3.0,-1.0,10
32,2,2352.14,32,2694.14,2695.65,6.46,C,mid,0.78,13,0.62,14,0.85,11,0.55,21,-999,2.0,1,3,2,3.0,0.0,-3.0,-1.0,0.0,0.0,111
32,2,2352.14,33,2702.45,2703.97,6.71,B,mid,0.78,13,0.65,14,0.82,11,0.52,21,-999,1.0,1,2,3,3.0,0.0,0.0,-1.0,-3.0,0.0,10
32,2,2352.14,34,2711.02,2712.53,8.37,B,mid,0.78,13,0.65,14,0.82,10,0.52,20,-999,1.0,3,2,1,3.0,0.0,0.0,-1.0,-3.0,-1.0,100
32,2,2352.14,35,2721.25,2722.76,8.84,A,left,0.29,34,0.42,23,0.72,13,-999.0,-999,-999,99.0,1,2,3,0.0,0.0,0.0,0.0,0.0,0.0,101
32,2,2352.14,36,2731.94,2733.46,7.61,A,left,0.78,13,0.62,14,0.76,12,0.6,13,-999,31.0,1,3,2,3.0,0.0,-3.0,-1.0,-3.0,0.0,11
32,2,2352.14,37,2741.41,2742.92,20.42,B,right,0.72,13,0.62,15,0.7,12,0.6,14,-999,32.0,1,3,2,-3.0,0.0,-3.0,0.0,3.0,-1.0,11
32,2,2352.14,38,2825.73,2827.24,8.67,B,left,0.78,13,0.62,15,0.76,12,0.6,14,-999,32.0,3,1,2,3.0,0.0,-3.0,0.0,3.0,0.0,111
32,2,2352.14,39,2836.26,2837.77,10.46,C,mid,0.72,13,0.65,15,0.82,10,0.52,20,-999,2.0,1,3,2,-3.0,0.0,0.0,0.0,-3.0,-1.0,111
32,2,2352.14,40,2848.57,2850.09,7.17,A,mid,0.32,31,0.6,16,0.78,12,-999.0,-999,-999,99.0,2,1,3,0.0,0.0,0.0,0.0,0.0,0.0,10
32,2,2352.14,41,2857.6,2859.12,5.13,B,mid,0.75,12,0.62,15,0.88,11,0.58,21,-999,1.0,1,2,3,0.0,-1.0,-3.0,0.0,3.0,0.0,0
32,2,2352.14,42,2864.58,2866.1,7.63,A,right,0.72,12,0.65,15,0.7,11,0.63,14,-999,31.0,3,1,2,-3.0,-1.0,0.0,0.0,3.0,-1.0,0
32,2,2352.14,43,2874.06,2875.58,6.12,C,right,0.72,12,0.62,14,0.88,11,0.58,21,-999,2.0,1,2,3,-3.0,-1.0,-3.0,-1.0,3.0,0.0,100
32,2,2352.14,44,2882.03,2883.54,4.08,B,left,0.75,12,0.68,15,0.88,11,0.58,21,-999,1.0,2,1,3,0.0,-1.0,3.0,0.0,3.0,0.0,101
32,2,2352.14,45,2887.96,2889.47,4.09,C,right,0.75,13,0.65,14,0.85,10,0.55,20,-999,2.0,1,2,3,0.0,0.0,0.0,-1.0,0.0,-1.0,100
32,2,2352.14,46,2893.91,2895.42,5.16,C,left,0.72,12,0.65,15,0.85,11,0.55,21,-999,2.0,2,3,1,-3.0,-1.0,0.0,0.0,0.0,0.0,11
32,2,2352.14,47,2900.92,2902.44,4.33,C,left,0.75,12,0.68,14,0.85,10,0.55,20,-999,2.0,3,2,1,0.0,-1.0,3.0,-1.0,0.0,-1.0,11
32,2,2352.14,48,2907.1,2908.62,6.28,B,left,0.78,12,0.62,15,0.85,10,0.55,20,-999,1.0,2,1,3,3.0,-1.0,-3.0,0.0,0.0,-1.0,10
32,2,2352.14,49,2915.25,2916.77,13.02,A,left,0.78,12,0.68,15,0.76,11,0.66,14,-999,31.0,1,3,2,3.0,-1.0,3.0,0.0,0.0,0.0,10
32,2,2352.14,50,2930.13,2931.65,6.98,B,left,0.78,12,0.62,14,0.76,11,0.6,13,-999,32.0,2,1,3,3.0,-1.0,-3.0,-1.0,0.0,-1.0,110
32,2,2352.14,51,2938.96,2940.48,7.43,A,left,0.31,32,0.38,26,0.85,11,-999.0,-999,-999,99.0,1,3,2,0.0,0.0,0.0,0.0,0.0,0.0,0
32,2,2352.14,52,2948.24,2949.76,14.12,B,mid,0.78,12,0.68,15,0.88,11,0.58,21,-999,1.0,1,2,3,3.0,-1.0,3.0,0.0,3.0,0.0,110
32,2,2352.14,53,2964.22,2965.73,11.9,B,right,0.75,12,0.68,14,0.73,11,0.66,13,-999,31.0,2,3,1,0.0,-1.0,3.0,-1.0,0.0,-1.0,111
32,2,2352.14,54,2977.96,2979.48,8.6,A,mid,0.19,52,0.56,17,0.8,12,-999.0,-999,-999,99.0,2,1,3,0.0,0.0,0.0,0.0,0.0,0.0,101
32,2,2352.14,55,2988.41,2989.93,11.12,A,right,0.75,13,0.65,15,0.73,12,0.63,14,-999,31.0,3,2,1,0.0,0.0,0.0,0.0,0.0,0.0,100
32,2,2352.14,56,3001.39,3002.91,4.35,C,right,0.75,13,0.62,14,0.88,11,0.58,21,-999,2.0,1,2,3,0.0,0.0,-3.0,-1.0,3.0,0.0,111
32,2,2352.14,57,3007.59,3009.1,8.21,B,mid,0.75,13,0.65,14,0.73,12,0.63,13,-999,31.0,1,2,3,0.0,0.0,0.0,-1.0,0.0,0.0,1
32,2,2352.14,58,3017.65,3019.17,8.1,C,left,0.78,13,0.65,14,0.82,10,0.52,20,-999,2.0,3,2,1,3.0,0.0,0.0,-1.0,-3.0,-1.0,0
32,2,2352.14,59,3027.6,3029.11,12.36,A,mid,0.27,37,0.61,16,0.89,11,-999.0,-999,-999,99.0,2,3,1,0.0,0.0,0.0,0.0,0.0,0.0,10
32,2,2352.14,60,3041.81,3043.33,14.14,A,right,0.78,13,0.68,15,0.82,11,0.52,21,-999,1.0,3,1,2,3.0,0.0,3.0,0.0,-3.0,0.0,111
32,2,2352.14,61,3057.81,3059.32,21.6,A,right,0.72,13,0.62,15,0.7,12,0.6,14,-999,31.0,3,2,1,-3.0,0.0,-3.0,0.0,0.0,-1.0,110
32,2,2352.14,62,3081.26,3082.78,6.36,B,mid,0.78,13,0.65,15,0.76,12,0.63,14,-999,32.0,1,2,3,3.0,0.0,0.0,0.0,-3.0,-1.0,100
32,2,2352.14,63,3089.48,3090.99,9.23,A,left,0.28,35,0.67,14,0.78,12,-999.0,-999,-999,99.0,1,2,3,0.0,0.0,0.0,0.0,0.0,0.0,0
32,2,2352.14,64,3100.56,3102.07,13.11,A,left,0.72,12,0.65,14,0.7,11,0.63,13,-999,31.0,1,2,3,-3.0,-1.0,0.0,-1.0,3.0,-1.0,10
32,2,2352.14,65,3115.52,3117.04,10.47,C,mid,0.72,13,0.62,14,0.85,11,0.55,21,-999,2.0,3,1,2,-3.0,0.0,-3.0,-1.0,0.0,0.0,0
32,2,2352.14,66,3127.85,3129.37,12.4,C,left,0.72,13,0.68,15,0.82,11,0.52,21,-999,2.0,2,3,1,-3.0,0.0,3.0,0.0,-3.0,0.0,110
32,2,2352.14,67,3142.11,3143.63,8.13,A,right,0.75,13,0.65,14,0.73,12,0.63,13,-999,31.0,3,2,1,0.0,0.0,0.0,-1.0,-3.0,-1.0,10
32,2,2352.14,68,3152.09,3153.61,11.16,B,mid,0.75,13,0.62,15,0.88,10,0.58,20,-999,1.0,3,2,1,0.0,0.0,-3.0,0.0,3.0,-1.0,110
32,2,2352.14,69,3165.1,3166.62,8.28,B,left,0.72,13,0.65,15,0.82,10,0.52,20,-999,1.0,3,1,2,-3.0,0.0,0.0,0.0,-3.0,-1.0,10
32,2,2352.14,70,3175.23,3176.75,8.01,C,right,0.72,13,0.68,14,0.88,11,0.58,21,-999,2.0,2,1,3,-3.0,0.0,3.0,-1.0,3.0,0.0,1
32,2,2352.14,71,3185.1,3186.61,14.14,B,mid,0.78,12,0.68,14,0.76,11,0.66,13,-999,32.0,3,2,1,3.0,-1.0,3.0,-1.0,3.0,-1.0,110
32,2,2352.14,72,3201.09,3202.61,4.73,B,right,0.72,12,0.62,15,0.7,11,0.6,14,-999,32.0,1,3,2,-3.0,-1.0,-3.0,0.0,-3.0,-1.0,110
32,2,2352.14,73,3207.67,3209.19,6.07,C,left,0.72,12,0.65,15,0.88,10,0.58,20,-999,2.0,3,2,1,-3.0,-1.0,0.0,0.0,3.0,-1.0,110
32,2,2352.14,74,3215.61,3217.12,8.03,B,mid,0.75,13,0.65,15,0.85,11,0.55,21,-999,1.0,3,2,1,0.0,0.0,0.0,0.0,0.0,0.0,11
32,2,2352.14,75,3225.49,3227.0,11.8,B,right,0.32,31,0.48,20,0.85,11,-999.0,-999,-999,99.0,1,3,2,0.0,0.0,0.0,0.0,0.0,0.0,111
32,Estimation3,3334.37,E1,3334.43,3335.95,4.11,B,left,0.75,11,0.65,15,0.85,-999,0.55,20,3,,3,1,2,,,,,,,100
32,Estimation3,3334.37,E2,3340.4,3341.91,3.87,C,left,0.75,12,0.65,15,0.85,-999,0.55,20,1,2.0,3,2,1,,,,,,,11
32,Estimation3,3334.37,E3,3346.13,3347.65,4.99,B,mid,0.75,12,0.65,15,0.85,-999,0.55,18,3,,1,2,3,,,,,,,110
32,Estimation3,3334.37,E4,3352.98,3354.49,4.7,C,right,0.75,13,0.65,15,0.85,-999,0.55,18,1,2.0,1,2,3,,,,,,,0
32,Estimation3,3334.37,E5,3359.54,3361.06,3.42,B,mid,0.75,13,0.65,15,0.85,-999,0.55,17,3,,3,2,1,,,,,,,111
32,Estimation3,3334.37,E6,3364.81,3366.32,10.79,C,mid,0.75,13,0.65,15,0.85,7,0.55,17,1,2.0,3,1,2,,,,,,,101
32,Estimation3,3334.37,E7,3377.45,3378.97,3.52,A,left,0.75,13,0.65,15,0.85,7,0.55,17,2,1.0,1,2,3,,,,,,,11
32,Estimation3,3334.37,E8,3382.84,3384.35,6.2,C,left,0.75,13,0.65,15,0.85,9,0.55,17,1,2.0,3,2,1,,,,,,,0
32,Estimation3,3334.37,E9,3390.88,3392.4,3.72,A,left,0.75,13,0.65,15,0.85,9,0.55,17,2,1.0,1,3,2,,,,,,,0
32,Estimation3,3334.37,E10,3396.46,3397.98,7.76,C,left,0.75,13,0.65,15,0.85,10,0.55,17,1,2.0,2,3,1,,,,,,,10
32,Estimation3,3334.37,E11,3406.08,3407.59,7.84,A,mid,0.75,13,0.65,15,0.85,10,0.55,17,2,1.0,2,1,3,,,,,,,11
32,Estimation3,3334.37,E12,3415.77,3417.29,8.23,C,mid,0.75,13,0.65,15,0.85,11,0.55,17,1,2.0,1,3,2,,,,,,,100
32,Estimation3,3334.37,E13,3425.85,3427.37,5.69,A,right,0.75,13,0.65,15,0.85,11,0.55,17,2,1.0,3,2,1,,,,,,,101
32,3,3441.59,1,3441.67,3443.18,6.02,C,right,0.72,12,0.68,14,0.85,11,0.55,17,-999,2.0,2,1,3,-3.0,-1.0,3.0,-1.0,0.0,0.0,111
32,3,3441.59,2,3449.55,3451.06,9.55,A,mid,0.78,13,0.65,14,0.82,10,0.52,16,-999,1.0,2,3,1,3.0,0.0,0.0,-1.0,-3.0,-1.0,111
32,3,3441.59,3,3460.94,3462.46,6.53,C,right,0.72,13,0.62,14,0.85,11,0.55,17,-999,2.0,1,2,3,-3.0,0.0,-3.0,-1.0,0.0,0.0,11
32,3,3441.59,4,3469.34,3470.86,9.94,B,left,0.78,12,0.68,15,0.85,10,0.55,16,-999,1.0,3,1,2,3.0,-1.0,3.0,0.0,0.0,-1.0,111
32,3,3441.59,5,3481.14,3482.65,8.74,B,right,0.75,13,0.65,15,0.85,11,0.55,17,-999,1.0,1,3,2,0.0,0.0,0.0,0.0,0.0,0.0,1
32,3,3441.59,6,3491.73,3493.25,13.13,B,left,0.75,12,0.68,15,0.88,11,0.58,17,-999,1.0,3,1,2,0.0,-1.0,3.0,0.0,3.0,0.0,10
32,3,3441.59,7,3506.73,3508.25,8.04,B,mid,0.78,12,0.62,15,0.85,10,0.55,16,-999,1.0,1,2,3,3.0,-1.0,-3.0,0.0,0.0,-1.0,11
32,3,3441.59,8,3516.63,3518.14,8.51,A,left,0.78,12,0.62,15,0.76,11,0.6,14,-999,31.0,1,3,2,3.0,-1.0,-3.0,0.0,0.0,0.0,10
32,3,3441.59,9,3526.99,3528.51,19.49,A,right,0.19,52,0.56,17,0.8,12,-999.0,-999,-999,99.0,3,1,2,0.0,0.0,0.0,0.0,0.0,0.0,1
32,3,3441.59,10,3548.35,3549.87,11.32,B,right,0.75,12,0.62,15,0.88,10,0.58,16,-999,2.0,2,3,1,0.0,-1.0,-3.0,0.0,3.0,-1.0,101
32,3,3441.59,11,3561.53,3563.04,9.79,A,right,0.75,13,0.65,14,0.73,12,0.63,13,-999,31.0,3,2,1,0.0,0.0,0.0,-1.0,-3.0,-1.0,110
32,3,3441.59,12,3573.17,3574.69,14.35,C,left,0.75,12,0.68,14,0.85,10,0.55,16,-999,2.0,3,2,1,0.0,-1.0,3.0,-1.0,0.0,-1.0,111
32,3,3441.59,13,3589.39,3590.9,12.19,B,mid,0.78,13,0.65,15,0.76,12,0.63,14,-999,32.0,1,2,3,3.0,0.0,0.0,0.0,-3.0,-1.0,1
32,3,3441.59,14,3603.43,3604.95,11.29,A,left,0.24,41,0.37,27,0.76,13,-999.0,-999,-999,99.0,1,2,3,0.0,0.0,0.0,0.0,0.0,0.0,0
32,3,3441.59,15,3616.58,3618.09,7.59,B,right,0.72,13,0.65,15,0.82,10,0.52,16,-999,1.0,2,3,1,-3.0,0.0,0.0,0.0,-3.0,-1.0,111
32,3,3441.59,16,3626.02,3627.54,12.04,A,left,0.29,34,0.42,23,0.72,13,-999.0,-999,-999,99.0,1,3,2,0.0,0.0,0.0,0.0,0.0,0.0,11
32,3,3441.59,17,3639.92,3641.44,10.18,B,left,0.72,13,0.65,15,0.82,10,0.52,16,-999,2.0,2,1,3,-3.0,0.0,0.0,0.0,-3.0,-1.0,11
32,3,3441.59,18,3651.95,3653.47,8.29,B,mid,0.78,13,0.68,15,0.82,11,0.52,17,-999,1.0,1,2,3,3.0,0.0,3.0,0.0,-3.0,0.0,110
32,3,3441.59,19,3662.1,3663.61,7.04,A,right,0.75,13,0.65,14,0.73,12,0.63,13,-999,31.0,3,1,2,0.0,0.0,0.0,-1.0,0.0,0.0,10
32,3,3441.59,20,3670.99,3672.51,10.3,B,left,0.72,13,0.68,15,0.82,10,0.52,16,-999,1.0,2,1,3,-3.0,0.0,3.0,0.0,-3.0,-1.0,100
32,3,3441.59,21,3683.14,3684.66,7.06,B,mid,0.75,13,0.62,15,0.88,10,0.58,16,-999,1.0,1,2,3,0.0,0.0,-3.0,0.0,3.0,-1.0,11
32,3,3441.59,22,3692.05,3693.57,5.61,B,right,0.72,13,0.62,15,0.7,12,0.6,14,-999,32.0,1,3,2,-3.0,0.0,-3.0,0.0,3.0,-1.0,111
32,3,3441.59,23,3699.52,3701.03,12.25,B,right,0.16,62,0.46,21,0.87,11,-999.0,-999,-999,99.0,2,3,1,0.0,0.0,0.0,0.0,0.0,0.0,11
32,3,3441.59,24,3713.61,3715.13,5.78,A,mid,0.27,37,0.47,21,0.86,11,-999.0,-999,-999,99.0,2,3,1,0.0,0.0,0.0,0.0,0.0,0.0,10
32,3,3441.59,25,3721.24,3722.76,7.58,A,right,0.78,13,0.62,14,0.76,12,0.6,13,-999,31.0,3,2,1,3.0,0.0,-3.0,-1.0,-3.0,0.0,101
32,3,3441.59,26,3730.69,3732.21,6.22,A,right,0.19,52,0.59,16,0.81,12,-999.0,-999,-999,99.0,3,2,1,0.0,0.0,0.0,0.0,0.0,0.0,111
32,3,3441.59,27,3738.77,3740.29,12.76,B,left,0.78,12,0.62,15,0.76,11,0.6,14,-999,32.0,3,1,2,3.0,-1.0,-3.0,0.0,-3.0,-1.0,10
32,3,3441.59,28,3753.38,3754.9,12.61,A,mid,0.31,32,0.38,26,0.85,11,-999.0,-999,-999,99.0,2,1,3,0.0,0.0,0.0,0.0,0.0,0.0,110
32,3,3441.59,29,3767.85,3769.36,5.48,B,right,0.78,13,0.62,15,0.76,12,0.6,14,-999,32.0,1,3,2,3.0,0.0,-3.0,0.0,3.0,0.0,0
32,3,3441.59,30,3775.19,3776.71,7.99,A,mid,0.28,35,0.67,14,0.78,12,-999.0,-999,-999,99.0,2,3,1,0.0,0.0,0.0,0.0,0.0,0.0,11
32,3,3441.59,31,3785.04,3786.56,8.15,B,mid,0.75,12,0.62,15,0.73,11,0.6,14,-999,32.0,1,2,3,0.0,-1.0,-3.0,0.0,-3.0,0.0,11
32,3,3441.59,32,3795.04,3796.55,6.57,B,left,0.72,12,0.62,15,0.7,11,0.6,14,-999,32.0,3,1,2,-3.0,-1.0,-3.0,0.0,-3.0,-1.0,110
32,3,3441.59,33,3803.47,3804.98,9.47,B,left,0.78,12,0.68,14,0.76,11,0.66,13,-999,32.0,3,1,2,3.0,-1.0,3.0,-1.0,3.0,-1.0,10
32,3,3441.59,34,3814.8,3816.31,8.79,A,left,0.32,31,0.6,16,0.78,12,-999.0,-999,-999,99.0,1,3,2,0.0,0.0,0.0,0.0,0.0,0.0,1
32,3,3441.59,35,3825.44,3826.96,10.27,A,mid,0.32,31,0.48,20,0.85,11,-999.0,-999,-999,99.0,2,1,3,0.0,0.0,0.0,0.0,0.0,0.0,11
32,3,3441.59,36,3837.57,3839.09,10.74,C,mid,0.75,13,0.65,14,0.85,10,0.55,16,-999,2.0,1,3,2,0.0,0.0,0.0,-1.0,0.0,-1.0,110
32,3,3441.59,37,3850.17,3851.69,5.21,A,mid,0.75,12,0.65,15,0.73,11,0.63,14,-999,31.0,2,1,3,0.0,-1.0,0.0,0.0,3.0,-1.0,100
32,3,3441.59,38,3906.07,3907.59,7.93,B,right,0.78,12,0.62,14,0.76,11,0.6,13,-999,32.0,2,3,1,3.0,-1.0,-3.0,-1.0,0.0,-1.0,10
32,3,3441.59,39,3915.85,3917.37,7.23,B,mid,0.72,13,0.68,14,0.7,12,0.66,13,-999,32.0,3,2,1,-3.0,0.0,3.0,-1.0,0.0,-1.0,1
32,3,3441.59,40,3924.93,3926.45,10.26,A,mid,0.27,37,0.61,16,0.89,11,-999.0,-999,-999,99.0,2,1,3,0.0,0.0,0.0,0.0,0.0,0.0,10
32,3,3441.59,41,3937.04,3938.56,7.09,B,left,0.75,12,0.62,15,0.88,11,0.58,17,-999,1.0,3,1,2,0.0,-1.0,-3.0,0.0,3.0,0.0,100
32,3,3441.59,42,3945.99,3947.51,8.51,A,left,0.72,12,0.65,15,0.7,11,0.63,14,-999,31.0,1,2,3,-3.0,-1.0,0.0,0.0,3.0,-1.0,100
32,3,3441.59,43,3956.35,3957.87,4.4,A,mid,0.72,13,0.62,15,0.7,12,0.6,14,-999,31.0,2,3,1,-3.0,0.0,-3.0,0.0,0.0,-1.0,0
32,3,3441.59,44,3962.6,3964.12,7.31,B,mid,0.72,12,0.65,15,0.7,11,0.63,14,-999,31.0,3,2,1,-3.0,-1.0,0.0,0.0,3.0,-1.0,11
32,3,3441.59,45,3971.76,3973.28,10.08,C,mid,0.72,13,0.68,15,0.82,11,0.52,17,-999,2.0,1,3,2,-3.0,0.0,3.0,0.0,-3.0,0.0,0
32,3,3441.59,46,3983.71,3985.23,9.47,B,left,0.72,12,0.65,15,0.88,10,0.58,16,-999,2.0,3,1,2,-3.0,-1.0,0.0,0.0,3.0,-1.0,110
32,3,3441.59,47,3995.02,3996.54,7.19,B,right,0.75,12,0.68,14,0.73,11,0.66,13,-999,32.0,1,3,2,0.0,-1.0,3.0,-1.0,0.0,0.0,100
32,3,3441.59,48,4004.07,4005.59,4.86,B,right,0.72,13,0.65,14,0.7,12,0.63,13,-999,32.0,1,3,2,-3.0,0.0,0.0,-1.0,3.0,0.0,111
32,3,3441.59,49,4010.79,4012.3,17.18,C,left,0.78,13,0.62,14,0.85,11,0.55,17,-999,2.0,2,3,1,3.0,0.0,-3.0,-1.0,0.0,0.0,111
32,3,3441.59,50,4029.83,4031.35,11.84,B,mid,0.75,13,0.65,15,0.82,10,0.52,16,-999,1.0,3,2,1,0.0,0.0,0.0,0.0,-3.0,-1.0,101
32,3,3441.59,51,4043.53,4045.04,6.12,B,mid,0.75,12,0.65,14,0.73,11,0.63,13,-999,32.0,3,2,1,0.0,-1.0,0.0,-1.0,3.0,0.0,1
32,3,3441.59,52,4051.51,4053.02,6.41,B,left,0.72,13,0.65,15,0.7,12,0.63,14,-999,31.0,3,1,2,-3.0,0.0,0.0,0.0,-3.0,-1.0,100
32,3,3441.59,53,4059.77,4061.29,14.34,B,left,0.78,12,0.68,15,0.76,11,0.66,14,-999,31.0,2,1,3,3.0,-1.0,3.0,0.0,0.0,0.0,0
32,3,3441.59,54,4075.96,4077.48,7.07,B,right,0.78,12,0.68,15,0.88,11,0.58,17,-999,1.0,2,3,1,3.0,-1.0,3.0,0.0,3.0,0.0,111
32,3,3441.59,55,4084.9,4086.41,11.33,C,left,0.72,13,0.62,14,0.85,11,0.55,17,-999,2.0,3,2,1,-3.0,0.0,-3.0,-1.0,0.0,0.0,111
32,3,3441.59,56,4098.07,4099.59,8.59,A,mid,0.72,12,0.68,14,0.7,11,0.66,13,-999,31.0,2,1,3,-3.0,-1.0,3.0,-1.0,-3.0,0.0,101
32,3,3441.59,57,4108.52,4110.04,9.97,A,mid,0.78,13,0.68,15,0.76,12,0.66,14,-999,31.0,2,3,1,3.0,0.0,3.0,0.0,0.0,0.0,101
32,3,3441.59,58,4120.33,4121.85,13.76,B,mid,0.72,13,0.68,15,0.82,10,0.52,16,-999,1.0,1,2,3,-3.0,0.0,3.0,0.0,-3.0,-1.0,111
32,3,3441.59,59,4135.95,4137.46,7.57,A,right,0.78,13,0.65,14,0.82,11,0.52,17,-999,1.0,3,1,2,3.0,0.0,0.0,-1.0,-3.0,0.0,100
32,3,3441.59,60,4145.36,4146.88,7.79,B,right,0.72,13,0.62,14,0.7,12,0.6,13,-999,32.0,1,3,2,-3.0,0.0,-3.0,-1.0,0.0,0.0,101
32,3,3441.59,61,4155.01,4156.52,12.08,B,right,0.75,13,0.65,15,0.73,12,0.63,14,-999,31.0,1,3,2,0.0,0.0,0.0,0.0,0.0,-1.0,100
32,3,3441.59,62,4168.94,4170.45,11.98,B,right,0.78,13,0.65,14,0.82,10,0.52,16,-999,2.0,2,3,1,3.0,0.0,0.0,-1.0,-3.0,-1.0,101
32,3,3441.59,63,4182.76,4184.28,8.53,C,mid,0.75,13,0.62,14,0.88,11,0.58,17,-999,2.0,1,3,2,0.0,0.0,-3.0,-1.0,3.0,0.0,111
32,3,3441.59,64,4193.14,4194.66,7.38,B,right,0.78,13,0.65,15,0.76,12,0.63,14,-999,32.0,2,3,1,3.0,0.0,0.0,0.0,0.0,0.0,10
32,3,3441.59,65,4202.37,4203.89,8.76,B,mid,0.78,13,0.68,15,0.88,10,0.58,16,-999,1.0,3,2,1,3.0,0.0,3.0,0.0,3.0,-1.0,0
32,3,3441.59,66,4212.99,4214.5,6.28,B,right,0.72,13,0.62,15,0.7,12,0.6,14,-999,32.0,2,3,1,-3.0,0.0,-3.0,0.0,0.0,0.0,111
32,3,3441.59,67,4221.12,4222.63,9.67,C,left,0.72,12,0.62,14,0.88,11,0.58,17,-999,2.0,2,3,1,-3.0,-1.0,-3.0,-1.0,3.0,0.0,10
32,3,3441.59,68,4232.65,4234.16,10.53,A,left,0.78,13,0.62,14,0.85,10,0.55,16,-999,1.0,1,3,2,3.0,0.0,-3.0,-1.0,0.0,-1.0,11
32,3,3441.59,69,4245.04,4246.56,9.33,C,mid,0.72,12,0.68,15,0.88,11,0.58,17,-999,2.0,1,3,2,-3.0,-1.0,3.0,0.0,3.0,0.0,0
32,3,3441.59,70,4256.22,4257.74,16.82,B,left,0.78,12,0.65,15,0.76,11,0.63,14,-999,32.0,2,1,3,3.0,-1.0,0.0,0.0,-3.0,-1.0,110
32,3,3441.59,71,4274.9,4276.42,5.18,C,right,0.72,13,0.68,14,0.88,11,0.58,17,-999,2.0,2,1,3,-3.0,0.0,3.0,-1.0,3.0,0.0,111
32,3,3441.59,72,4281.95,4283.47,4.43,C,right,0.72,12,0.65,15,0.85,11,0.55,17,-999,2.0,2,1,3,-3.0,-1.0,0.0,0.0,0.0,0.0,111
32,3,3441.59,73,4288.23,4289.75,4.85,A,right,0.72,12,0.65,14,0.7,11,0.63,13,-999,31.0,3,1,2,-3.0,-1.0,0.0,-1.0,3.0,-1.0,0
32,3,3441.59,74,4294.95,4296.46,5.28,A,mid,0.75,13,0.65,15,0.73,12,0.63,14,-999,31.0,2,3,1,0.0,0.0,0.0,0.0,0.0,0.0,10
32,3,3441.59,75,4302.08,4303.59,6.23,A,right,0.75,12,0.68,14,0.73,11,0.66,13,-999,31.0,3,2,1,0.0,-1.0,3.0,-1.0,0.0,-1.0,11
