subject,block,block_onset,trial,fixation_cross_onset,trial_onset,rt,choice,key,pA,mA,pB,mB,pCA,mCA,pCB,mCB,missing,condition,position_A,position_B,position_C,noise_Ap,noise_Am,noise_Bp,noise_Bm,noise_Cp,noise_Cm,attribute_positions
17,Practice,1267.5,P1,1267.54,1269.06,8.54,B,left,0.78,7,0.62,17,0.85,3,0.55,24,-999,2.0,3,1,2,3.0,-2.0,-3.0,2.0,0.0,-1.0,1
17,Practice,1267.5,P2,1277.94,1279.46,7.22,C,right,0.72,7,0.62,16,0.88,5,0.58,26,-999,2.0,1,2,3,-3.0,-2.0,-3.0,1.0,3.0,1.0,10
17,Practice,1267.5,P3,1287.02,1288.54,4.17,A,mid,0.75,11,0.68,13,0.85,4,0.55,25,-999,1.0,2,3,1,0.0,2.0,3.0,-2.0,0.0,0.0,110
17,Practice,1267.5,P4,1293.07,1294.59,8.12,A,right,0.75,9,0.65,15,0.88,5,0.58,26,-999,1.0,3,1,2,0.0,0.0,0.0,0.0,3.0,1.0,100
17,Practice,1267.5,P5,1303.03,1304.55,4.5,A,left,0.72,11,0.62,13,0.85,6,0.55,27,-999,1.0,1,3,2,-3.0,2.0,-3.0,-2.0,0.0,2.0,101
17,Practice,1267.5,P6,1309.4,1310.91,4.76,C,left,0.78,7,0.62,13,0.82,6,0.52,27,-999,2.0,2,3,1,3.0,-2.0,-3.0,-2.0,-3.0,2.0,110
17,Practice,1267.5,P7,1316.01,1317.53,2.43,C,right,0.75,7,0.65,17,0.85,5,0.55,26,-999,2.0,2,1,3,0.0,-2.0,0.0,2.0,0.0,1.0,111
17,Practice,1267.5,P8,1320.29,1321.81,2.84,C,mid,0.72,8,0.68,15,0.82,6,0.52,27,-999,2.0,3,1,2,-3.0,-1.0,3.0,0.0,-3.0,2.0,110
17,Practice,1267.5,P9,1324.99,1326.51,6.99,A,right,0.78,8,0.62,16,0.88,5,0.58,26,-999,1.0,3,1,2,3.0,-1.0,-3.0,1.0,3.0,1.0,1
17,Practice,1267.5,P10,1333.84,1335.36,2.27,A,left,0.75,10,0.65,16,0.82,2,0.52,23,-999,2.0,1,2,3,0.0,1.0,0.0,1.0,-3.0,-2.0,101
17,Practice,1267.5,P11,1337.96,1339.47,4.01,C,left,0.72,8,0.65,15,0.85,5,0.55,26,-999,2.0,2,3,1,-3.0,-1.0,0.0,0.0,0.0,1.0,0
17,Practice,1267.5,P12,1343.82,1345.34,3.81,B,right,0.72,8,0.68,15,0.85,5,0.55,26,-999,1.0,2,3,1,-3.0,-1.0,3.0,0.0,0.0,1.0,101
17,Practice,1267.5,P13,1349.49,1351.0,3.88,A,mid,0.78,11,0.68,16,0.88,5,0.58,26,-999,1.0,2,1,3,3.0,2.0,3.0,1.0,3.0,1.0,111
17,Practice,1267.5,P14,1355.22,1356.73,3.39,A,right,0.72,11,0.62,17,0.82,3,0.52,24,-999,2.0,3,2,1,-3.0,2.0,-3.0,2.0,-3.0,-1.0,0
17,Practice,1267.5,P15,1360.47,1361.98,5.78,A,mid,0.78,7,0.68,14,0.88,5,0.58,26,-999,2.0,2,3,1,3.0,-2.0,3.0,-1.0,3.0,1.0,10
17,Practice,1267.5,P16,1368.11,1369.63,2.24,C,right,0.78,7,0.65,13,0.82,2,0.52,23,-999,2.0,2,1,3,3.0,-2.0,0.0,-2.0,-3.0,-2.0,1
17,Practice,1267.5,P17,1372.21,1373.73,1.65,C,left,0.72,10,0.65,13,0.82,5,0.52,26,-999,2.0,3,2,1,-3.0,1.0,0.0,-2.0,-3.0,1.0,110
17,Practice,1267.5,P18,1375.73,1377.24,2.87,B,left,0.78,7,0.68,13,0.88,2,0.58,23,-999,2.0,3,1,2,3.0,-2.0,3.0,-2.0,3.0,-2.0,10
17,Practice,1267.5,P19,1380.46,1381.98,2.24,B,left,0.78,11,0.62,15,0.85,4,0.55,25,-999,1.0,3,1,2,3.0,2.0,-3.0,0.0,0.0,0.0,110
17,Practice,1267.5,P20,1384.56,1386.07,1.35,B,right,0.72,7,0.65,14,0.88,4,0.58,25,-999,1.0,1,3,2,-3.0,-2.0,0.0,-1.0,3.0,0.0,11
17,Practice,1267.5,P21,1387.76,1389.27,4.36,B,left,0.78,9,0.65,16,0.85,2,0.55,23,-999,1.0,3,1,2,3.0,0.0,0.0,1.0,0.0,-2.0,0
17,Practice,1267.5,P22,1393.97,1395.49,2.58,A,left,0.72,9,0.62,15,0.85,2,0.55,23,-999,1.0,1,3,2,-3.0,0.0,-3.0,0.0,0.0,-2.0,10
17,Practice,1267.5,P23,1398.4,1399.92,3.09,B,left,0.72,7,0.65,13,0.88,3,0.58,24,-999,1.0,3,1,2,-3.0,-2.0,0.0,-2.0,3.0,-1.0,100
17,Practice,1267.5,P24,1403.35,1404.87,3.02,B,left,0.78,7,0.65,13,0.82,5,0.52,26,-999,2.0,2,1,3,3.0,-2.0,0.0,-2.0,-3.0,1.0,10
17,Practice,1267.5,P25,1408.23,1409.75,6.35,A,mid,0.78,10,0.68,13,0.85,4,0.55,25,-999,1.0,2,3,1,3.0,1.0,3.0,-2.0,0.0,0.0,111
17,Estimation1,1528.07,E1,1528.13,1529.65,4.02,A,mid,0.75,11,0.65,15,0.85,-999,0.55,20,3,,2,1,3,,,,,,,11
17,Estimation1,1528.07,E2,1533.99,1535.51,4.03,B,right,0.75,8,0.65,15,0.85,-999,0.55,20,1,2.0,1,3,2,,,,,,,101
17,Estimation1,1528.07,E3,1539.88,1541.39,2.94,B,left,0.75,8,0.65,15,0.85,-999,0.55,28,3,,3,1,2,,,,,,,100
17,Estimation1,1528.07,E4,1544.67,1546.19,1.61,B,right,0.75,10,0.65,15,0.85,-999,0.55,28,1,2.0,2,3,1,,,,,,,101
17,Estimation1,1528.07,E5,1548.14,1549.66,3.89,B,mid,0.75,10,0.65,15,0.85,-999,0.55,32,3,,1,2,3,,,,,,,1
17,Estimation1,1528.07,E6,1553.89,1555.4,4.77,C,right,0.75,11,0.65,15,0.85,-999,0.55,32,1,2.0,2,1,3,,,,,,,101
17,Estimation1,1528.07,E7,1560.52,1562.04,3.54,B,mid,0.75,11,0.65,15,0.85,-999,0.55,30,3,,1,2,3,,,,,,,100
17,Estimation1,1528.07,E8,1565.92,1567.43,1.76,B,right,0.75,11,0.65,15,0.85,6,0.55,30,1,2.0,2,3,1,,,,,,,100
17,Estimation1,1528.07,E9,1569.53,1571.05,2.29,A,right,0.75,11,0.65,15,0.85,6,0.55,31,2,1.0,3,2,1,,,,,,,100
17,Estimation1,1528.07,E10,1573.68,1575.2,2.16,C,mid,0.75,11,0.65,15,0.85,8,0.55,31,1,2.0,1,3,2,,,,,,,0
17,Estimation1,1528.07,E11,1577.7,1579.21,3.62,A,left,0.75,11,0.65,15,0.85,8,0.55,31,2,1.0,1,2,3,,,,,,,101
17,Estimation1,1528.07,E12,1583.18,1584.69,1.74,C,right,0.75,11,0.65,15,0.85,9,0.55,31,1,2.0,2,1,3,,,,,,,110
17,Estimation1,1528.07,E13,1586.78,1588.29,3.94,C,right,0.75,11,0.65,15,0.85,9,0.55,31,2,1.0,2,1,3,,,,,,,11
17,1,1595.47,1,1595.54,1597.06,1.88,C,mid,0.31,32,0.38,26,0.85,11,-999.0,-999,-999,99.0,1,3,2,0.0,0.0,0.0,0.0,0.0,0.0,0
17,1,1595.47,2,1599.27,1600.79,3.84,A,left,0.78,11,0.68,15,0.82,9,0.52,31,-999,1.0,1,3,2,3.0,0.0,3.0,0.0,-3.0,0.0,0
17,1,1595.47,3,1604.97,1606.49,5.34,B,left,0.72,11,0.62,14,0.7,10,0.6,13,-999,32.0,2,1,3,-3.0,0.0,-3.0,-1.0,0.0,0.0,111
17,1,1595.47,4,1612.17,1613.69,4.51,A,left,0.75,10,0.68,14,0.73,9,0.66,13,-999,31.0,1,3,2,0.0,-1.0,3.0,-1.0,0.0,-1.0,110
17,1,1595.47,5,1618.53,1620.05,3.83,B,right,0.27,37,0.61,16,0.89,11,-999.0,-999,-999,99.0,1,3,2,0.0,0.0,0.0,0.0,0.0,0.0,111
17,1,1595.47,6,1624.22,1625.73,4.59,C,left,0.32,31,0.6,16,0.78,12,-999.0,-999,-999,99.0,3,2,1,0.0,0.0,0.0,0.0,0.0,0.0,111
17,1,1595.47,7,1630.65,1632.16,4.05,B,right,0.78,10,0.68,15,0.88,9,0.58,31,-999,1.0,1,3,2,3.0,-1.0,3.0,0.0,3.0,0.0,101
17,1,1595.47,8,1636.54,1638.06,3.27,A,left,0.72,11,0.62,15,0.7,10,0.6,14,-999,31.0,1,2,3,-3.0,0.0,-3.0,0.0,0.0,-1.0,101
17,1,1595.47,9,1641.68,1643.19,6.75,B,mid,0.75,11,0.65,14,0.73,10,0.63,13,-999,31.0,3,2,1,0.0,0.0,0.0,-1.0,0.0,0.0,1
17,1,1595.47,10,1650.27,1651.79,4.03,A,left,0.75,10,0.62,15,0.88,9,0.58,31,-999,1.0,1,3,2,0.0,-1.0,-3.0,0.0,3.0,0.0,100
17,1,1595.47,11,1656.16,1657.67,6.75,A,mid,0.78,11,0.68,15,0.76,10,0.66,14,-999,31.0,2,3,1,3.0,0.0,3.0,0.0,0.0,0.0,101
17,1,1595.47,12,1664.75,1666.27,5.28,C,left,0.27,37,0.47,21,0.86,11,-999.0,-999,-999,99.0,3,2,1,0.0,0.0,0.0,0.0,0.0,0.0,111
17,1,1595.47,13,1671.88,1673.4,7.5,A,left,0.78,11,0.65,15,0.76,10,0.63,14,-999,32.0,1,3,2,3.0,0.0,0.0,0.0,0.0,0.0,101
17,1,1595.47,14,1681.25,1682.76,4.84,B,left,0.72,11,0.65,14,0.7,10,0.63,13,-999,32.0,3,1,2,-3.0,0.0,0.0,-1.0,3.0,0.0,0
17,1,1595.47,15,1687.95,1689.46,4.79,A,right,0.72,11,0.68,15,0.82,8,0.52,30,-999,1.0,3,1,2,-3.0,0.0,3.0,0.0,-3.0,-1.0,0
17,1,1595.47,16,1694.59,1696.11,1.9,C,mid,0.72,11,0.68,15,0.82,9,0.52,31,-999,2.0,3,1,2,-3.0,0.0,3.0,0.0,-3.0,0.0,111
17,1,1595.47,17,1698.34,1699.86,3.6,C,mid,0.72,10,0.65,15,0.88,8,0.58,30,-999,2.0,3,1,2,-3.0,-1.0,0.0,0.0,3.0,-1.0,10
17,1,1595.47,18,1703.79,1705.31,4.44,B,mid,0.72,10,0.62,15,0.7,9,0.6,14,-999,32.0,3,2,1,-3.0,-1.0,-3.0,0.0,-3.0,-1.0,110
17,1,1595.47,19,1710.09,1711.6,4.86,B,left,0.78,10,0.68,15,0.85,8,0.55,30,-999,1.0,2,1,3,3.0,-1.0,3.0,0.0,0.0,-1.0,0
17,1,1595.47,20,1716.8,1718.32,9.68,A,mid,0.72,11,0.65,15,0.7,10,0.63,14,-999,31.0,2,1,3,-3.0,0.0,0.0,0.0,-3.0,-1.0,11
17,1,1595.47,21,1728.35,1729.87,3.71,A,mid,0.78,11,0.65,14,0.82,8,0.52,30,-999,1.0,2,1,3,3.0,0.0,0.0,-1.0,-3.0,-1.0,101
17,1,1595.47,22,1733.91,1735.43,8.9,A,mid,0.75,11,0.65,15,0.85,9,0.55,31,-999,1.0,2,1,3,0.0,0.0,0.0,0.0,0.0,0.0,1
17,1,1595.47,23,1744.68,1746.19,5.26,B,right,0.72,11,0.68,15,0.82,8,0.52,30,-999,1.0,2,3,1,-3.0,0.0,3.0,0.0,-3.0,-1.0,11
17,1,1595.47,24,1751.79,1753.31,4.9,A,left,0.75,11,0.65,15,0.82,8,0.52,30,-999,1.0,1,2,3,0.0,0.0,0.0,0.0,-3.0,-1.0,100
17,1,1595.47,25,1758.57,1760.09,10.52,A,left,0.72,11,0.62,15,0.7,10,0.6,14,-999,32.0,1,3,2,-3.0,0.0,-3.0,0.0,0.0,0.0,11
17,1,1595.47,26,1770.95,1772.47,3.22,A,left,0.75,11,0.65,15,0.73,10,0.63,14,-999,31.0,1,2,3,0.0,0.0,0.0,0.0,0.0,-1.0,101
17,1,1595.47,27,1776.05,1777.57,6.38,A,left,0.72,10,0.62,14,0.88,9,0.58,31,-999,2.0,1,2,3,-3.0,-1.0,-3.0,-1.0,3.0,0.0,111
17,1,1595.47,28,1784.28,1785.8,1.35,C,right,0.78,11,0.65,14,0.82,8,0.52,30,-999,2.0,2,1,3,3.0,0.0,0.0,-1.0,-3.0,-1.0,101
17,1,1595.47,29,1787.48,1789.0,3.26,A,mid,0.75,11,0.62,15,0.88,8,0.58,30,-999,1.0,2,3,1,0.0,0.0,-3.0,0.0,3.0,-1.0,100
17,1,1595.47,30,1792.6,1794.11,4.94,C,right,0.72,11,0.65,15,0.82,8,0.52,30,-999,1.0,2,1,3,-3.0,0.0,0.0,0.0,-3.0,-1.0,0
17,1,1595.47,31,1799.39,1800.91,2.05,C,left,0.72,10,0.68,15,0.88,9,0.58,31,-999,2.0,2,3,1,-3.0,-1.0,3.0,0.0,3.0,0.0,110
17,1,1595.47,32,1803.29,1804.81,3.31,A,left,0.19,52,0.59,16,0.81,12,-999.0,-999,-999,99.0,1,2,3,0.0,0.0,0.0,0.0,0.0,0.0,10
17,1,1595.47,33,1808.46,1809.97,7.3,B,right,0.75,10,0.65,14,0.73,9,0.63,13,-999,32.0,1,3,2,0.0,-1.0,0.0,-1.0,3.0,0.0,100
17,1,1595.47,34,1817.62,1819.14,3.29,C,mid,0.75,11,0.62,14,0.88,9,0.58,31,-999,2.0,3,1,2,0.0,0.0,-3.0,-1.0,3.0,0.0,110
17,1,1595.47,35,1822.77,1824.29,6.55,B,right,0.72,11,0.65,15,0.82,8,0.52,30,-999,2.0,2,3,1,-3.0,0.0,0.0,0.0,-3.0,-1.0,0
17,1,1595.47,36,1831.17,1832.68,3.98,C,right,0.29,34,0.42,23,0.72,13,-999.0,-999,-999,99.0,2,1,3,0.0,0.0,0.0,0.0,0.0,0.0,111
17,1,1595.47,37,1837.0,1838.51,3.1,B,mid,0.78,10,0.68,15,0.76,9,0.66,14,-999,31.0,1,2,3,3.0,-1.0,3.0,0.0,0.0,0.0,100
17,1,1595.47,38,1862.96,1864.47,4.11,A,left,0.72,11,0.62,15,0.7,10,0.6,14,-999,32.0,1,2,3,-3.0,0.0,-3.0,0.0,3.0,-1.0,110
17,1,1595.47,39,1868.92,1870.44,4.33,A,left,0.16,62,0.46,21,0.87,11,-999.0,-999,-999,99.0,1,2,3,0.0,0.0,0.0,0.0,0.0,0.0,11
17,1,1595.47,40,1875.1,1876.62,4.16,A,right,0.78,11,0.65,14,0.82,9,0.52,31,-999,1.0,3,1,2,3.0,0.0,0.0,-1.0,-3.0,0.0,110
17,1,1595.47,41,1881.12,1882.63,1.99,C,right,0.75,10,0.68,14,0.85,8,0.55,30,-999,2.0,2,1,3,0.0,-1.0,3.0,-1.0,0.0,-1.0,110
17,1,1595.47,42,1884.97,1886.48,2.09,C,mid,0.72,11,0.68,14,0.88,9,0.58,31,-999,2.0,1,3,2,-3.0,0.0,3.0,-1.0,3.0,0.0,1
17,1,1595.47,43,1888.92,1890.43,6.4,B,mid,0.75,10,0.62,15,0.73,9,0.6,14,-999,32.0,1,2,3,0.0,-1.0,-3.0,0.0,-3.0,0.0,110
17,1,1595.47,44,1897.16,1898.68,2.92,C,mid,0.72,11,0.62,14,0.85,9,0.55,31,-999,2.0,3,1,2,-3.0,0.0,-3.0,-1.0,0.0,0.0,10
17,1,1595.47,45,1901.94,1903.46,3.69,A,right,0.78,11,0.68,15,0.88,8,0.58,30,-999,1.0,3,2,1,3.0,0.0,3.0,0.0,3.0,-1.0,1
17,1,1595.47,46,1907.49,1909.01,4.49,A,mid,0.78,11,0.62,14,0.85,8,0.55,30,-999,1.0,2,1,3,3.0,0.0,-3.0,-1.0,0.0,-1.0,10
17,1,1595.47,47,1913.84,1915.36,4.99,A,mid,0.78,10,0.68,14,0.76,9,0.66,13,-999,32.0,2,3,1,3.0,-1.0,3.0,-1.0,3.0,-1.0,11
17,1,1595.47,48,1920.69,1922.2,3.81,A,left,0.78,11,0.65,15,0.76,10,0.63,14,-999,32.0,1,2,3,3.0,0.0,0.0,0.0,-3.0,-1.0,10
17,1,1595.47,49,1926.35,1927.87,2.81,A,left,0.78,11,0.62,14,0.85,9,0.55,31,-999,2.0,1,2,3,3.0,0.0,-3.0,-1.0,0.0,0.0,11
17,1,1595.47,50,1931.02,1932.53,5.12,A,right,0.72,10,0.65,14,0.7,9,0.63,13,-999,31.0,3,2,1,-3.0,-1.0,0.0,-1.0,3.0,-1.0,0
17,1,1595.47,51,1937.98,1939.5,6.63,C,right,0.72,10,0.68,14,0.85,9,0.55,31,-999,2.0,2,1,3,-3.0,-1.0,3.0,-1.0,0.0,0.0,1
17,1,1595.47,52,1946.46,1947.98,6.25,B,left,0.78,10,0.62,15,0.76,9,0.6,14,-999,31.0,2,1,3,3.0,-1.0,-3.0,0.0,0.0,0.0,10
17,1,1595.47,53,1954.56,1956.08,5.39,C,right,0.24,41,0.37,27,0.76,13,-999.0,-999,-999,99.0,1,2,3,0.0,0.0,0.0,0.0,0.0,0.0,0
17,1,1595.47,54,1961.81,1963.32,6.73,B,left,0.75,10,0.68,14,0.73,9,0.66,13,-999,32.0,2,1,3,0.0,-1.0,3.0,-1.0,0.0,0.0,100
17,1,1595.47,55,1970.39,1971.91,4.98,A,left,0.78,10,0.62,15,0.85,8,0.55,30,-999,1.0,1,2,3,3.0,-1.0,-3.0,0.0,0.0,-1.0,0
17,1,1595.47,56,1977.22,1978.74,4.78,C,left,0.32,31,0.48,20,0.85,11,-999.0,-999,-999,99.0,2,3,1,0.0,0.0,0.0,0.0,0.0,0.0,10
17,1,1595.47,57,1983.85,1985.37,5.34,A,left,0.75,11,0.65,15,0.73,10,0.63,14,-999,31.0,1,2,3,0.0,0.0,0.0,0.0,0.0,0.0,101
17,1,1595.47,58,1991.05,1992.57,4.2,A,left,0.72,10,0.65,15,0.7,9,0.63,14,-999,31.0,1,3,2,-3.0,-1.0,0.0,0.0,3.0,-1.0,111
17,1,1595.47,59,1997.11,1998.63,11.08,A,mid,0.75,11,0.65,14,0.85,8,0.55,30,-999,2.0,2,1,3,0.0,0.0,0.0,-1.0,0.0,-1.0,100
17,1,1595.47,60,2010.04,2011.56,4.63,A,right,0.78,11,0.62,15,0.76,10,0.6,14,-999,32.0,3,1,2,3.0,0.0,-3.0,0.0,3.0,0.0,110
17,1,1595.47,61,2016.54,2018.06,3.31,A,right,0.75,10,0.65,15,0.73,9,0.63,14,-999,31.0,3,2,1,0.0,-1.0,0.0,0.0,3.0,-1.0,1
17,1,1595.47,62,2021.71,2023.22,4.66,A,right,0.75,11,0.65,14,0.73,10,0.63,13,-999,31.0,3,1,2,0.0,0.0,0.0,-1.0,-3.0,-1.0,111
17,1,1595.47,63,2028.22,2029.74,3.42,C,left,0.75,10,0.68,15,0.88,9,0.58,31,-999,1.0,3,2,1,0.0,-1.0,3.0,0.0,3.0,0.0,0
17,1,1595.47,64,2033.5,2035.02,6.26,B,mid,0.78,10,0.62,15,0.76,9,0.6,14,-999,32.0,1,2,3,3.0,-1.0,-3.0,0.0,-3.0,-1.0,0
17,1,1595.47,65,2041.62,2043.13,6.99,A,mid,0.78,10,0.62,14,0.76,9,0.6,13,-999,32.0,2,3,1,3.0,-1.0,-3.0,-1.0,0.0,-1.0,110
17,1,1595.47,66,2050.46,2051.98,6.78,A,mid,0.72,10,0.65,15,0.7,9,0.63,14,-999,31.0,2,1,3,-3.0,-1.0,0.0,0.0,3.0,-1.0,101
17,1,1595.47,67,2059.09,2060.61,3.59,C,right,0.28,35,0.67,14,0.78,12,-999.0,-999,-999,99.0,2,1,3,0.0,0.0,0.0,0.0,0.0,0.0,111
17,1,1595.47,68,2064.54,2066.06,7.7,B,right,0.72,11,0.68,14,0.7,10,0.66,13,-999,32.0,1,3,2,-3.0,0.0,3.0,-1.0,0.0,-1.0,10
17,1,1595.47,69,2074.11,2075.62,8.88,B,mid,0.72,10,0.68,14,0.7,9,0.66,13,-999,31.0,1,2,3,-3.0,-1.0,3.0,-1.0,-3.0,0.0,111
17,1,1595.47,70,2084.84,2086.35,5.14,A,right,0.78,10,0.65,15,0.76,9,0.63,14,-999,32.0,3,1,2,3.0,-1.0,0.0,0.0,-3.0,-1.0,111
17,1,1595.47,71,2091.83,2093.35,5.83,A,right,0.78,11,0.62,14,0.76,10,0.6,13,-999,31.0,3,2,1,3.0,0.0,-3.0,-1.0,-3.0,0.0,100
17,1,1595.47,72,2099.52,2101.03,5.93,B,left,0.72,11,0.62,14,0.85,9,0.55,31,-999,2.0,3,1,2,-3.0,0.0,-3.0,-1.0,0.0,0.0,0
17,1,1595.47,73,2107.3,2108.81,1.77,C,mid,0.75,10,0.62,15,0.88,8,0.58,30,-999,2.0,1,3,2,0.0,-1.0,-3.0,0.0,3.0,-1.0,110
17,1,1595.47,74,2110.93,2112.44,4.2,C,mid,0.19,52,0.56,17,0.8,12,-999.0,-999,-999,99.0,3,1,2,0.0,0.0,0.0,0.0,0.0,0.0,110
17,1,1595.47,75,2116.99,2118.51,3.74,C,right,0.72,10,0.65,15,0.85,9,0.55,31,-999,2.0,2,1,3,-3.0,-1.0,0.0,0.0,0.0,0.0,110
17,Estimation2,2185.31,E1,2185.37,2186.89,4.99,B,mid,0.75,11,0.65,15,0.85,-999,0.55,20,3,,3,2,1,,,,,,,110
17,Estimation2,2185.31,E2,2192.2,2193.72,3.19,C,left,0.75,12,0.65,15,0.85,-999,0.55,20,1,2.0,3,2,1,,,,,,,100
17,Estimation2,2185.31,E3,2197.25,2198.77,3.3,B,left,0.75,12,0.65,15,0.85,-999,0.55,18,3,,2,1,3,,,,,,,110
17,Estimation2,2185.31,E4,2202.4,2203.92,2.07,C,right,0.75,13,0.65,15,0.85,-999,0.55,18,1,2.0,1,2,3,,,,,,,0
17,Estimation2,2185.31,E5,2206.33,2207.85,3.68,A,right,0.75,13,0.65,15,0.85,-999,0.55,17,3,,3,1,2,,,,,,,1
17,Estimation2,2185.31,E6,2211.86,2213.38,2.57,B,right,0.75,13,0.65,15,0.85,7,0.55,17,1,2.0,1,3,2,,,,,,,1
17,Estimation2,2185.31,E7,2216.28,2217.79,2.09,A,left,0.75,13,0.65,15,0.85,7,0.55,18,2,1.0,1,3,2,,,,,,,0
17,Estimation2,2185.31,E8,2220.23,2221.74,4.04,C,right,0.75,13,0.65,15,0.85,9,0.55,18,1,2.0,1,2,3,,,,,,,0
17,Estimation2,2185.31,E9,2226.12,2227.64,2.77,A,right,0.75,13,0.65,15,0.85,9,0.55,18,2,1.0,3,1,2,,,,,,,101
17,Estimation2,2185.31,E10,2230.74,2232.26,4.19,B,left,0.75,13,0.65,15,0.85,10,0.55,18,1,2.0,3,1,2,,,,,,,10
17,Estimation2,2185.31,E11,2236.79,2238.3,2.5,C,left,0.75,13,0.65,15,0.85,10,0.55,18,2,1.0,3,2,1,,,,,,,110
17,2,2245.15,1,2245.22,2246.74,3.6,A,right,0.72,13,0.62,14,0.7,12,0.6,13,-999,32.0,3,2,1,-3.0,0.0,-3.0,-1.0,0.0,0.0,110
17,2,2245.15,2,2250.67,2252.18,4.76,A,mid,0.78,13,0.68,15,0.76,12,0.66,14,-999,31.0,2,3,1,3.0,0.0,3.0,0.0,0.0,0.0,110
17,2,2245.15,3,2257.28,2258.8,3.13,B,left,0.75,12,0.65,15,0.73,11,0.63,14,-999,31.0,3,1,2,0.0,-1.0,0.0,0.0,3.0,-1.0,11
17,2,2245.15,4,2262.26,2263.78,4.56,C,right,0.27,37,0.61,16,0.89,11,-999.0,-999,-999,99.0,1,2,3,0.0,0.0,0.0,0.0,0.0,0.0,101
17,2,2245.15,5,2268.68,2270.19,4.07,A,left,0.78,13,0.62,14,0.85,9,0.55,17,-999,1.0,1,3,2,3.0,0.0,-3.0,-1.0,0.0,-1.0,111
17,2,2245.15,6,2274.61,2276.13,4.19,A,mid,0.75,13,0.62,14,0.88,10,0.58,18,-999,2.0,2,1,3,0.0,0.0,-3.0,-1.0,3.0,0.0,11
17,2,2245.15,7,2280.66,2282.17,5.54,A,mid,0.72,13,0.65,14,0.7,12,0.63,13,-999,32.0,2,1,3,-3.0,0.0,0.0,-1.0,3.0,0.0,100
17,2,2245.15,8,2288.06,2289.57,3.96,B,mid,0.75,12,0.62,15,0.73,11,0.6,14,-999,32.0,3,2,1,0.0,-1.0,-3.0,0.0,-3.0,0.0,0
17,2,2245.15,9,2293.87,2295.39,4.03,A,mid,0.75,12,0.68,15,0.88,10,0.58,18,-999,1.0,2,3,1,0.0,-1.0,3.0,0.0,3.0,0.0,111
17,2,2245.15,10,2299.75,2301.27,3.76,C,left,0.72,12,0.65,15,0.88,9,0.58,17,-999,2.0,3,2,1,-3.0,-1.0,0.0,0.0,3.0,-1.0,0
17,2,2245.15,11,2305.37,2306.88,2.76,A,mid,0.78,12,0.68,14,0.76,11,0.66,13,-999,32.0,2,1,3,3.0,-1.0,3.0,-1.0,3.0,-1.0,1
17,2,2245.15,12,2309.98,2311.5,5.13,B,mid,0.72,12,0.65,15,0.85,10,0.55,18,-999,2.0,3,2,1,-3.0,-1.0,0.0,0.0,0.0,0.0,10
17,2,2245.15,13,2316.96,2318.48,5.87,C,mid,0.72,12,0.68,15,0.88,10,0.58,18,-999,2.0,3,1,2,-3.0,-1.0,3.0,0.0,3.0,0.0,110
17,2,2245.15,14,2324.69,2326.21,8.15,B,left,0.72,13,0.62,15,0.7,12,0.6,14,-999,32.0,3,1,2,-3.0,0.0,-3.0,0.0,0.0,0.0,0
17,2,2245.15,15,2334.69,2336.21,4.35,B,left,0.78,12,0.62,14,0.76,11,0.6,13,-999,32.0,2,1,3,3.0,-1.0,-3.0,-1.0,0.0,-1.0,110
17,2,2245.15,16,2340.91,2342.42,10.77,B,left,0.75,12,0.68,14,0.73,11,0.66,13,-999,32.0,3,1,2,0.0,-1.0,3.0,-1.0,0.0,0.0,110
17,2,2245.15,17,2353.53,2355.05,1.73,A,left,0.78,12,0.62,15,0.76,11,0.6,14,-999,32.0,1,3,2,3.0,-1.0,-3.0,0.0,-3.0,-1.0,0
17,2,2245.15,18,2357.12,2358.63,5.11,A,right,0.78,13,0.65,15,0.76,12,0.63,14,-999,32.0,3,2,1,3.0,0.0,0.0,0.0,0.0,0.0,1
17,2,2245.15,19,2364.08,2365.6,6.4,B,right,0.78,12,0.68,15,0.88,10,0.58,18,-999,1.0,2,3,1,3.0,-1.0,3.0,0.0,3.0,0.0,11
17,2,2245.15,20,2372.35,2373.86,9.91,B,right,0.72,12,0.62,15,0.7,11,0.6,14,-999,32.0,1,3,2,-3.0,-1.0,-3.0,0.0,-3.0,-1.0,10
17,2,2245.15,21,2384.11,2385.62,3.1,C,left,0.32,31,0.6,16,0.78,12,-999.0,-999,-999,99.0,3,2,1,0.0,0.0,0.0,0.0,0.0,0.0,10
17,2,2245.15,22,2389.06,2390.57,4.82,C,mid,0.72,12,0.65,15,0.7,11,0.63,14,-999,31.0,3,1,2,-3.0,-1.0,0.0,0.0,3.0,-1.0,11
17,2,2245.15,23,2395.72,2397.24,4.31,C,left,0.28,35,0.67,14,0.78,12,-999.0,-999,-999,99.0,2,3,1,0.0,0.0,0.0,0.0,0.0,0.0,101
17,2,2245.15,24,2401.89,2403.4,4.44,B,mid,0.72,13,0.68,15,0.82,9,0.52,17,-999,1.0,3,2,1,-3.0,0.0,3.0,0.0,-3.0,-1.0,10
17,2,2245.15,25,2408.18,2409.7,3.79,C,left,0.78,13,0.65,14,0.82,9,0.52,17,-999,1.0,3,2,1,3.0,0.0,0.0,-1.0,-3.0,-1.0,111
17,2,2245.15,26,2413.83,2415.35,4.43,A,right,0.24,41,0.37,27,0.76,13,-999.0,-999,-999,99.0,3,1,2,0.0,0.0,0.0,0.0,0.0,0.0,10
17,2,2245.15,27,2420.11,2421.63,3.19,C,left,0.27,37,0.47,21,0.86,11,-999.0,-999,-999,99.0,2,3,1,0.0,0.0,0.0,0.0,0.0,0.0,100
17,2,2245.15,28,2425.16,2426.68,2.99,A,left,0.75,13,0.65,15,0.82,9,0.52,17,-999,1.0,1,2,3,0.0,0.0,0.0,0.0,-3.0,-1.0,11
17,2,2245.15,29,2430.01,2431.53,3.62,A,mid,0.72,13,0.62,14,0.85,10,0.55,18,-999,2.0,2,3,1,-3.0,0.0,-3.0,-1.0,0.0,0.0,1
17,2,2245.15,30,2435.49,2437.01,5.14,C,mid,0.19,52,0.56,17,0.8,12,-999.0,-999,-999,99.0,1,3,2,0.0,0.0,0.0,0.0,0.0,0.0,0
17,2,2245.15,31,2442.49,2444.01,2.38,A,right,0.78,13,0.62,14,0.76,12,0.6,13,-999,31.0,3,1,2,3.0,0.0,-3.0,-1.0,-3.0,0.0,100
17,2,2245.15,32,2446.72,2448.24,3.89,A,left,0.78,12,0.62,15,0.76,11,0.6,14,-999,31.0,1,2,3,3.0,-1.0,-3.0,0.0,0.0,0.0,0
17,2,2245.15,33,2452.47,2453.99,3.97,C,right,0.72,13,0.68,14,0.88,10,0.58,18,-999,2.0,2,1,3,-3.0,0.0,3.0,-1.0,3.0,0.0,10
17,2,2245.15,34,2458.28,2459.8,3.96,A,left,0.78,13,0.68,15,0.82,10,0.52,18,-999,1.0,1,3,2,3.0,0.0,3.0,0.0,-3.0,0.0,111
17,2,2245.15,35,2464.1,2465.62,6.94,A,left,0.75,13,0.65,15,0.73,12,0.63,14,-999,31.0,1,2,3,0.0,0.0,0.0,0.0,0.0,0.0,10
17,2,2245.15,36,2472.9,2474.41,5.39,C,left,0.29,34,0.42,23,0.72,13,-999.0,-999,-999,99.0,3,2,1,0.0,0.0,0.0,0.0,0.0,0.0,100
17,2,2245.15,37,2480.14,2481.66,4.6,C,right,0.31,32,0.38,26,0.85,11,-999.0,-999,-999,99.0,1,2,3,0.0,0.0,0.0,0.0,0.0,0.0,101
17,2,2245.15,38,2512.1,2513.62,6.74,C,mid,0.78,13,0.68,15,0.88,9,0.58,17,-999,1.0,1,3,2,3.0,0.0,3.0,0.0,3.0,-1.0,11
17,2,2245.15,39,2520.7,2522.21,4.14,C,mid,0.75,12,0.62,15,0.88,10,0.58,18,-999,1.0,1,3,2,0.0,-1.0,-3.0,0.0,3.0,0.0,11
17,2,2245.15,40,2526.7,2528.21,2.55,A,right,0.75,13,0.65,15,0.73,12,0.63,14,-999,31.0,3,1,2,0.0,0.0,0.0,0.0,0.0,-1.0,111
17,2,2245.15,41,2531.11,2532.63,3.01,A,left,0.72,13,0.62,14,0.85,10,0.55,18,-999,2.0,1,3,2,-3.0,0.0,-3.0,-1.0,0.0,0.0,111
17,2,2245.15,42,2535.98,2537.49,6.45,A,mid,0.78,13,0.62,15,0.76,12,0.6,14,-999,32.0,2,1,3,3.0,0.0,-3.0,0.0,3.0,0.0,10
17,2,2245.15,43,2544.27,2545.79,3.36,A,left,0.75,13,0.65,14,0.73,12,0.63,13,-999,31.0,1,2,3,0.0,0.0,0.0,-1.0,0.0,0.0,0
17,2,2245.15,44,2549.49,2551.01,3.03,A,right,0.72,13,0.65,15,0.82,9,0.52,17,-999,2.0,3,1,2,-3.0,0.0,0.0,0.0,-3.0,-1.0,0
17,2,2245.15,45,2554.37,2555.89,1.94,A,left,0.78,13,0.65,14,0.82,9,0.52,17,-999,2.0,1,2,3,3.0,0.0,0.0,-1.0,-3.0,-1.0,100
17,2,2245.15,46,2558.15,2559.67,3.52,A,mid,0.72,12,0.65,14,0.7,11,0.63,13,-999,31.0,2,1,3,-3.0,-1.0,0.0,-1.0,3.0,-1.0,101
17,2,2245.15,47,2563.53,2565.05,1.88,A,left,0.78,13,0.65,14,0.82,10,0.52,18,-999,1.0,1,2,3,3.0,0.0,0.0,-1.0,-3.0,0.0,100
17,2,2245.15,48,2567.27,2568.78,2.93,A,mid,0.72,13,0.62,15,0.7,12,0.6,14,-999,31.0,2,3,1,-3.0,0.0,-3.0,0.0,0.0,-1.0,11
17,2,2245.15,49,2572.05,2573.56,3.28,A,right,0.75,13,0.65,14,0.85,9,0.55,17,-999,2.0,3,2,1,0.0,0.0,0.0,-1.0,0.0,-1.0,11
17,2,2245.15,50,2577.18,2578.7,2.62,A,mid,0.78,12,0.65,15,0.76,11,0.63,14,-999,32.0,2,1,3,3.0,-1.0,0.0,0.0,-3.0,-1.0,10
17,2,2245.15,51,2581.66,2583.18,1.8,C,mid,0.72,13,0.68,15,0.82,9,0.52,17,-999,1.0,1,3,2,-3.0,0.0,3.0,0.0,-3.0,-1.0,10
17,2,2245.15,52,2585.33,2586.84,4.49,C,right,0.19,52,0.59,16,0.81,12,-999.0,-999,-999,99.0,2,1,3,0.0,0.0,0.0,0.0,0.0,0.0,110
17,2,2245.15,53,2591.68,2593.19,2.69,C,mid,0.78,12,0.68,15,0.85,9,0.55,17,-999,1.0,1,3,2,3.0,-1.0,3.0,0.0,0.0,-1.0,0
17,2,2245.15,54,2596.22,2597.74,6.91,A,left,0.75,12,0.68,14,0.85,9,0.55,17,-999,2.0,1,2,3,0.0,-1.0,3.0,-1.0,0.0,-1.0,110
17,2,2245.15,55,2604.99,2606.5,2.61,A,mid,0.78,12,0.68,15,0.76,11,0.66,14,-999,31.0,2,3,1,3.0,-1.0,3.0,0.0,0.0,0.0,111
17,2,2245.15,56,2609.45,2610.97,5.48,A,mid,0.78,13,0.65,15,0.76,12,0.63,14,-999,32.0,2,1,3,3.0,0.0,0.0,0.0,-3.0,-1.0,101
17,2,2245.15,57,2616.8,2618.32,3.58,C,left,0.72,13,0.65,15,0.82,9,0.52,17,-999,1.0,3,2,1,-3.0,0.0,0.0,0.0,-3.0,-1.0,100
17,2,2245.15,58,2622.23,2623.75,4.3,C,right,0.72,12,0.62,14,0.88,10,0.58,18,-999,2.0,1,2,3,-3.0,-1.0,-3.0,-1.0,3.0,0.0,111
17,2,2245.15,59,2628.4,2629.91,2.16,A,left,0.72,13,0.62,15,0.7,12,0.6,14,-999,32.0,1,2,3,-3.0,0.0,-3.0,0.0,3.0,-1.0,1
17,2,2245.15,60,2632.41,2633.93,3.29,A,right,0.72,12,0.65,15,0.7,11,0.63,14,-999,31.0,3,2,1,-3.0,-1.0,0.0,0.0,3.0,-1.0,0
17,2,2245.15,61,2637.56,2639.08,1.39,A,mid,0.78,13,0.62,14,0.85,10,0.55,18,-999,2.0,2,3,1,3.0,0.0,-3.0,-1.0,0.0,0.0,10
17,2,2245.15,62,2640.81,2642.33,4.36,A,right,0.72,13,0.68,14,0.7,12,0.66,13,-999,32.0,3,1,2,-3.0,0.0,3.0,-1.0,0.0,-1.0,111
17,2,2245.15,63,2647.03,2648.54,2.95,C,left,0.16,62,0.46,21,0.87,11,-999.0,-999,-999,99.0,3,2,1,0.0,0.0,0.0,0.0,0.0,0.0,110
17,2,2245.15,64,2651.84,2653.36,3.13,A,left,0.75,12,0.65,14,0.73,11,0.63,13,-999,32.0,1,2,3,0.0,-1.0,0.0,-1.0,3.0,0.0,100
17,2,2245.15,65,2656.82,2658.34,3.93,A,left,0.72,12,0.68,14,0.85,10,0.55,18,-999,2.0,1,2,3,-3.0,-1.0,3.0,-1.0,0.0,0.0,0
17,2,2245.15,66,2662.6,2664.12,2.93,A,left,0.72,13,0.65,15,0.7,12,0.63,14,-999,31.0,1,2,3,-3.0,0.0,0.0,0.0,-3.0,-1.0,10
17,2,2245.15,67,2667.39,2668.9,2.7,A,right,0.78,12,0.62,15,0.85,9,0.55,17,-999,1.0,3,1,2,3.0,-1.0,-3.0,0.0,0.0,-1.0,0
17,2,2245.15,68,2671.93,2673.45,5.98,A,mid,0.72,12,0.68,14,0.7,11,0.66,13,-999,31.0,2,3,1,-3.0,-1.0,3.0,-1.0,-3.0,0.0,110
17,2,2245.15,69,2679.76,2681.28,3.86,C,left,0.75,13,0.65,15,0.85,10,0.55,18,-999,1.0,3,2,1,0.0,0.0,0.0,0.0,0.0,0.0,10
17,2,2245.15,70,2685.48,2687.0,2.95,A,right,0.75,12,0.62,15,0.88,9,0.58,17,-999,2.0,3,2,1,0.0,-1.0,-3.0,0.0,3.0,-1.0,110
17,2,2245.15,71,2690.29,2691.81,3.47,A,right,0.75,13,0.62,15,0.88,9,0.58,17,-999,1.0,3,1,2,0.0,0.0,-3.0,0.0,3.0,-1.0,10
17,2,2245.15,72,2695.61,2697.13,3.9,A,mid,0.75,13,0.65,14,0.73,12,0.63,13,-999,31.0,2,1,3,0.0,0.0,0.0,-1.0,-3.0,-1.0,1
17,2,2245.15,73,2701.37,2702.89,4.06,C,left,0.32,31,0.48,20,0.85,11,-999.0,-999,-999,99.0,3,2,1,0.0,0.0,0.0,0.0,0.0,0.0,110
17,2,2245.15,74,2707.29,2708.81,3.95,A,left,0.75,12,0.68,14,0.73,11,0.66,13,-999,31.0,1,3,2,0.0,-1.0,3.0,-1.0,0.0,-1.0,110
17,2,2245.15,75,2713.09,2714.6,4.29,B,mid,0.72,13,0.68,15,0.82,10,0.52,18,-999,2.0,3,2,1,-3.0,0.0,3.0,0.0,-3.0,0.0,110
17,Estimation3,2783.53,E1,2783.58,2785.1,1.96,A,right,0.75,11,0.65,15,0.85,-999,0.55,20,3,,3,2,1,,,,,,,11
17,Estimation3,2783.53,E2,2787.4,2788.91,2.93,C,mid,0.75,8,0.65,15,0.85,-999,0.55,20,1,2.0,1,3,2,,,,,,,111
17,Estimation3,2783.53,E3,2792.18,2793.7,2.19,A,right,0.75,8,0.65,15,0.85,-999,0.55,18,3,,3,1,2,,,,,,,100
17,Estimation3,2783.53,E4,2796.23,2797.74,2.75,C,left,0.75,6,0.65,15,0.85,-999,0.55,18,1,2.0,3,2,1,,,,,,,11
17,Estimation3,2783.53,E5,2800.83,2802.34,4.37,B,mid,0.75,6,0.65,15,0.85,-999,0.55,17,3,,1,2,3,,,,,,,110
17,Estimation3,2783.53,E6,2807.04,2808.56,4.07,B,mid,0.75,7,0.65,15,0.85,-999,0.55,17,1,2.0,1,2,3,,,,,,,0
17,Estimation3,2783.53,E7,2812.97,2814.49,2.08,B,mid,0.75,7,0.65,15,0.85,-999,0.55,18,3,,3,2,1,,,,,,,111
17,Estimation3,2783.53,E8,2816.9,2818.42,2.86,C,mid,0.75,8,0.65,15,0.85,-999,0.55,18,1,2.0,3,1,2,,,,,,,101
17,Estimation3,2783.53,E9,2821.62,2823.14,4.33,B,mid,0.75,8,0.65,15,0.85,-999,0.55,18,3,,1,2,3,,,,,,,11
17,Estimation3,2783.53,E10,2827.8,2829.32,4.1,C,left,0.75,8,0.65,15,0.85,4,0.55,18,1,2.0,3,2,1,,,,,,,0
17,Estimation3,2783.53,E11,2833.77,2835.28,3.16,A,left,0.75,8,0.65,15,0.85,4,0.55,18,2,1.0,1,3,2,,,,,,,0
17,Estimation3,2783.53,E12,2838.78,2840.3,2.47,C,left,0.75,8,0.65,15,0.85,5,0.55,18,1,2.0,2,3,1,,,,,,,10
17,Estimation3,2783.53,E13,2843.1,2844.61,5.24,A,mid,0.75,8,0.65,15,0.85,5,0.55,18,2,1.0,2,1,3,,,,,,,11
17,Estimation3,2783.53,E14,2850.19,2851.71,2.53,C,mid,0.75,8,0.65,15,0.85,6,0.55,18,1,2.0,1,3,2,,,,,,,100
17,Estimation3,2783.53,E15,2854.63,2856.14,3.45,A,right,0.75,8,0.65,15,0.85,6,0.55,18,2,1.0,3,2,1,,,,,,,101
17,3,2868.06,1,2868.14,2869.65,5.13,B,left,0.72,7,0.68,14,0.85,6,0.55,18,-999,2.0,2,1,3,-3.0,-1.0,3.0,-1.0,0.0,0.0,111
17,3,2868.06,2,2875.12,2876.64,4.94,A,mid,0.78,8,0.65,14,0.82,5,0.52,17,-999,1.0,2,3,1,3.0,0.0,0.0,-1.0,-3.0,-1.0,111
17,3,2868.06,3,2881.92,2883.43,3.95,C,right,0.72,8,0.62,14,0.85,6,0.55,18,-999,2.0,1,2,3,-3.0,0.0,-3.0,-1.0,0.0,0.0,11
17,3,2868.06,4,2887.72,2889.23,2.62,A,right,0.78,7,0.68,15,0.85,5,0.55,17,-999,1.0,3,1,2,3.0,-1.0,3.0,0.0,0.0,-1.0,111
17,3,2868.06,5,2892.2,2893.71,7.27,B,right,0.75,8,0.65,15,0.85,6,0.55,18,-999,1.0,1,3,2,0.0,0.0,0.0,0.0,0.0,0.0,1
17,3,2868.06,6,2901.33,2902.84,3.14,B,left,0.75,7,0.68,15,0.88,6,0.58,18,-999,1.0,3,1,2,0.0,-1.0,3.0,0.0,3.0,0.0,10
17,3,2868.06,7,2906.31,2907.83,3.68,A,left,0.78,7,0.62,15,0.85,5,0.55,17,-999,1.0,1,2,3,3.0,-1.0,-3.0,0.0,0.0,-1.0,11
17,3,2868.06,8,2911.84,2913.36,4.77,A,left,0.78,7,0.62,15,0.76,6,0.6,14,-999,31.0,1,3,2,3.0,-1.0,-3.0,0.0,0.0,0.0,10
17,3,2868.06,9,2918.47,2919.99,2.47,C,mid,0.19,52,0.56,17,0.8,12,-999.0,-999,-999,99.0,3,1,2,0.0,0.0,0.0,0.0,0.0,0.0,1
17,3,2868.06,10,2922.8,2924.32,3.59,A,mid,0.75,7,0.62,15,0.88,5,0.58,17,-999,2.0,2,3,1,0.0,-1.0,-3.0,0.0,3.0,-1.0,101
17,3,2868.06,11,2928.25,2929.77,12.79,B,mid,0.75,8,0.65,14,0.73,7,0.63,13,-999,31.0,3,2,1,0.0,0.0,0.0,-1.0,-3.0,-1.0,110
17,3,2868.06,12,2942.9,2944.41,7.43,B,mid,0.75,7,0.68,14,0.85,5,0.55,17,-999,2.0,3,2,1,0.0,-1.0,3.0,-1.0,0.0,-1.0,111
17,3,2868.06,13,2952.18,2953.69,3.53,A,left,0.78,8,0.65,15,0.76,7,0.63,14,-999,32.0,1,2,3,3.0,0.0,0.0,0.0,-3.0,-1.0,1
17,3,2868.06,14,2957.56,2959.08,3.27,C,right,0.24,41,0.37,27,0.76,13,-999.0,-999,-999,99.0,1,2,3,0.0,0.0,0.0,0.0,0.0,0.0,0
17,3,2868.06,15,2962.69,2964.21,4.38,B,right,0.72,8,0.65,15,0.82,5,0.52,17,-999,1.0,2,3,1,-3.0,0.0,0.0,0.0,-3.0,-1.0,111
17,3,2868.06,16,2968.92,2970.44,7.13,C,mid,0.29,34,0.42,23,0.72,13,-999.0,-999,-999,99.0,1,3,2,0.0,0.0,0.0,0.0,0.0,0.0,11
17,3,2868.06,17,2977.9,2979.42,4.46,A,mid,0.72,8,0.65,15,0.82,5,0.52,17,-999,2.0,2,1,3,-3.0,0.0,0.0,0.0,-3.0,-1.0,11
17,3,2868.06,18,2984.22,2985.73,5.36,B,mid,0.78,8,0.68,15,0.82,6,0.52,18,-999,1.0,1,2,3,3.0,0.0,3.0,0.0,-3.0,0.0,110
17,3,2868.06,19,2991.43,2992.95,4.35,B,left,0.75,8,0.65,14,0.73,7,0.63,13,-999,31.0,3,1,2,0.0,0.0,0.0,-1.0,0.0,0.0,10
17,3,2868.06,20,2997.63,2999.15,5.67,B,left,0.72,8,0.68,15,0.82,5,0.52,17,-999,1.0,2,1,3,-3.0,0.0,3.0,0.0,-3.0,-1.0,100
17,3,2868.06,21,3005.16,3006.68,3.61,A,left,0.75,8,0.62,15,0.88,5,0.58,17,-999,1.0,1,2,3,0.0,0.0,-3.0,0.0,3.0,-1.0,11
17,3,2868.06,22,3010.63,3012.14,5.26,B,right,0.72,8,0.62,15,0.7,7,0.6,14,-999,32.0,1,3,2,-3.0,0.0,-3.0,0.0,3.0,-1.0,111
17,3,2868.06,23,3017.74,3019.26,7.31,C,left,0.16,62,0.46,21,0.87,11,-999.0,-999,-999,99.0,2,3,1,0.0,0.0,0.0,0.0,0.0,0.0,11
17,3,2868.06,24,3026.9,3028.42,7.01,C,left,0.27,37,0.47,21,0.86,11,-999.0,-999,-999,99.0,2,3,1,0.0,0.0,0.0,0.0,0.0,0.0,10
17,3,2868.06,25,3035.77,3037.28,3.61,A,right,0.78,8,0.62,14,0.76,7,0.6,13,-999,31.0,3,2,1,3.0,0.0,-3.0,-1.0,-3.0,0.0,101
17,3,2868.06,26,3041.23,3042.75,3.62,A,right,0.19,52,0.59,16,0.81,12,-999.0,-999,-999,99.0,3,2,1,0.0,0.0,0.0,0.0,0.0,0.0,111
17,3,2868.06,27,3046.72,3048.23,11.49,A,right,0.78,7,0.62,15,0.76,6,0.6,14,-999,32.0,3,1,2,3.0,-1.0,-3.0,0.0,-3.0,-1.0,10
17,3,2868.06,28,3060.06,3061.58,3.22,C,right,0.31,32,0.38,26,0.85,11,-999.0,-999,-999,99.0,2,1,3,0.0,0.0,0.0,0.0,0.0,0.0,110
17,3,2868.06,29,3065.13,3066.64,4.27,B,right,0.78,8,0.62,15,0.76,7,0.6,14,-999,32.0,1,3,2,3.0,0.0,-3.0,0.0,3.0,0.0,0
17,3,2868.06,30,3071.24,3072.76,3.93,C,left,0.28,35,0.67,14,0.78,12,-999.0,-999,-999,99.0,2,3,1,0.0,0.0,0.0,0.0,0.0,0.0,11
17,3,2868.06,31,3077.02,3078.54,5.01,A,left,0.75,7,0.62,15,0.73,6,0.6,14,-999,32.0,1,2,3,0.0,-1.0,-3.0,0.0,-3.0,0.0,11
17,3,2868.06,32,3083.89,3085.4,5.63,B,left,0.72,7,0.62,15,0.7,6,0.6,14,-999,32.0,3,1,2,-3.0,-1.0,-3.0,0.0,-3.0,-1.0,110
17,3,2868.06,33,3091.37,3092.88,9.86,B,left,0.78,7,0.68,14,0.76,6,0.66,13,-999,32.0,3,1,2,3.0,-1.0,3.0,-1.0,3.0,-1.0,10
17,3,2868.06,34,3103.08,3104.6,4.97,B,right,0.32,31,0.6,16,0.78,12,-999.0,-999,-999,99.0,1,3,2,0.0,0.0,0.0,0.0,0.0,0.0,1
17,3,2868.06,35,3109.9,3111.41,4.0,C,right,0.32,31,0.48,20,0.85,11,-999.0,-999,-999,99.0,2,1,3,0.0,0.0,0.0,0.0,0.0,0.0,11
17,3,2868.06,36,3115.74,3117.26,4.07,A,left,0.75,8,0.65,14,0.85,5,0.55,17,-999,2.0,1,3,2,0.0,0.0,0.0,-1.0,0.0,-1.0,110
17,3,2868.06,37,3121.67,3123.19,4.26,B,left,0.75,7,0.65,15,0.73,6,0.63,14,-999,31.0,2,1,3,0.0,-1.0,0.0,0.0,3.0,-1.0,100
17,3,2868.06,38,3162.0,3163.51,3.87,B,right,0.78,7,0.62,14,0.76,6,0.6,13,-999,32.0,2,3,1,3.0,-1.0,-3.0,-1.0,0.0,-1.0,10
17,3,2868.06,39,3167.71,3169.23,5.22,C,left,0.72,8,0.68,14,0.7,7,0.66,13,-999,32.0,3,2,1,-3.0,0.0,3.0,-1.0,0.0,-1.0,1
17,3,2868.06,40,3174.79,3176.31,1.42,C,right,0.27,37,0.61,16,0.89,11,-999.0,-999,-999,99.0,2,1,3,0.0,0.0,0.0,0.0,0.0,0.0,10
17,3,2868.06,41,3178.07,3179.59,3.49,A,right,0.75,7,0.62,15,0.88,6,0.58,18,-999,1.0,3,1,2,0.0,-1.0,-3.0,0.0,3.0,0.0,100
17,3,2868.06,42,3183.42,3184.94,4.65,B,mid,0.72,7,0.65,15,0.7,6,0.63,14,-999,31.0,1,2,3,-3.0,-1.0,0.0,0.0,3.0,-1.0,100
17,3,2868.06,43,3189.92,3191.44,3.43,B,right,0.72,8,0.62,15,0.7,7,0.6,14,-999,31.0,2,3,1,-3.0,0.0,-3.0,0.0,0.0,-1.0,0
17,3,2868.06,44,3195.2,3196.72,6.2,B,mid,0.72,7,0.65,15,0.7,6,0.63,14,-999,31.0,3,2,1,-3.0,-1.0,0.0,0.0,3.0,-1.0,11
17,3,2868.06,45,3203.27,3204.78,4.51,B,right,0.72,8,0.68,15,0.82,6,0.52,18,-999,2.0,1,3,2,-3.0,0.0,3.0,0.0,-3.0,0.0,0
17,3,2868.06,46,3209.63,3211.15,5.06,B,left,0.72,7,0.65,15,0.88,5,0.58,17,-999,2.0,3,1,2,-3.0,-1.0,0.0,0.0,3.0,-1.0,110
17,3,2868.06,47,3216.54,3218.06,3.69,B,right,0.75,7,0.68,14,0.73,6,0.66,13,-999,32.0,1,3,2,0.0,-1.0,3.0,-1.0,0.0,0.0,100
17,3,2868.06,48,3222.09,3223.61,5.0,B,right,0.72,8,0.65,14,0.7,7,0.63,13,-999,32.0,1,3,2,-3.0,0.0,0.0,-1.0,3.0,0.0,111
17,3,2868.06,49,3228.94,3230.46,3.07,B,right,0.78,8,0.62,14,0.85,6,0.55,18,-999,2.0,2,3,1,3.0,0.0,-3.0,-1.0,0.0,0.0,111
17,3,2868.06,50,3233.87,3235.39,6.97,B,mid,0.75,8,0.65,15,0.82,5,0.52,17,-999,1.0,3,2,1,0.0,0.0,0.0,0.0,-3.0,-1.0,101
17,3,2868.06,51,3242.7,3244.22,4.22,B,mid,0.75,7,0.65,14,0.73,6,0.63,13,-999,32.0,3,2,1,0.0,-1.0,0.0,-1.0,3.0,0.0,1
17,3,2868.06,52,3248.78,3250.3,4.16,B,left,0.72,8,0.65,15,0.7,7,0.63,14,-999,31.0,3,1,2,-3.0,0.0,0.0,0.0,-3.0,-1.0,100
17,3,2868.06,53,3254.8,3256.32,2.57,B,left,0.78,7,0.68,15,0.76,6,0.66,14,-999,31.0,2,1,3,3.0,-1.0,3.0,0.0,0.0,0.0,0
17,3,2868.06,54,3259.21,3260.73,3.46,B,right,0.78,7,0.68,15,0.88,6,0.58,18,-999,1.0,2,3,1,3.0,-1.0,3.0,0.0,3.0,0.0,111
17,3,2868.06,55,3264.53,3266.05,8.88,C,left,0.72,8,0.62,14,0.85,6,0.55,18,-999,2.0,3,2,1,-3.0,0.0,-3.0,-1.0,0.0,0.0,111
17,3,2868.06,56,3275.26,3276.78,3.91,B,left,0.72,7,0.68,14,0.7,6,0.66,13,-999,31.0,2,1,3,-3.0,-1.0,3.0,-1.0,-3.0,0.0,101
17,3,2868.06,57,3281.02,3282.54,4.8,B,right,0.78,8,0.68,15,0.76,7,0.66,14,-999,31.0,2,3,1,3.0,0.0,3.0,0.0,0.0,0.0,101
17,3,2868.06,58,3287.67,3289.19,4.32,B,mid,0.72,8,0.68,15,0.82,5,0.52,17,-999,1.0,1,2,3,-3.0,0.0,3.0,0.0,-3.0,-1.0,111
17,3,2868.06,59,3293.84,3295.35,4.01,B,left,0.78,8,0.65,14,0.82,6,0.52,18,-999,1.0,3,1,2,3.0,0.0,0.0,-1.0,-3.0,0.0,100
17,3,2868.06,60,3299.7,3301.22,5.29,B,right,0.72,8,0.62,14,0.7,7,0.6,13,-999,32.0,1,3,2,-3.0,0.0,-3.0,-1.0,0.0,0.0,101
17,3,2868.06,61,3306.85,3308.37,3.05,B,right,0.75,8,0.65,15,0.73,7,0.63,14,-999,31.0,1,3,2,0.0,0.0,0.0,0.0,0.0,-1.0,100
17,3,2868.06,62,3311.75,3313.26,3.45,B,right,0.78,8,0.65,14,0.82,5,0.52,17,-999,2.0,2,3,1,3.0,0.0,0.0,-1.0,-3.0,-1.0,101
17,3,2868.06,63,3317.05,3318.56,3.06,B,right,0.75,8,0.62,14,0.88,6,0.58,18,-999,2.0,1,3,2,0.0,0.0,-3.0,-1.0,3.0,0.0,111
17,3,2868.06,64,3321.96,3323.48,4.85,B,right,0.78,8,0.65,15,0.76,7,0.63,14,-999,32.0,2,3,1,3.0,0.0,0.0,0.0,0.0,0.0,10
17,3,2868.06,65,3328.66,3330.18,3.62,B,mid,0.78,8,0.68,15,0.88,5,0.58,17,-999,1.0,3,2,1,3.0,0.0,3.0,0.0,3.0,-1.0,0
17,3,2868.06,66,3334.12,3335.64,4.0,B,right,0.72,8,0.62,15,0.7,7,0.6,14,-999,32.0,2,3,1,-3.0,0.0,-3.0,0.0,0.0,0.0,111
17,3,2868.06,67,3339.97,3341.49,4.26,C,left,0.72,7,0.62,14,0.88,6,0.58,18,-999,2.0,2,3,1,-3.0,-1.0,-3.0,-1.0,3.0,0.0,10
17,3,2868.06,68,3346.09,3347.6,6.3,B,right,0.78,8,0.62,14,0.85,5,0.55,17,-999,1.0,1,3,2,3.0,0.0,-3.0,-1.0,0.0,-1.0,11
17,3,2868.06,69,3354.25,3355.77,4.02,C,mid,0.72,7,0.68,15,0.88,6,0.58,18,-999,2.0,1,3,2,-3.0,-1.0,3.0,0.0,3.0,0.0,0
17,3,2868.06,70,3360.12,3361.63,4.6,B,left,0.78,7,0.65,15,0.76,6,0.63,14,-999,32.0,2,1,3,3.0,-1.0,0.0,0.0,-3.0,-1.0,110
17,3,2868.06,71,3366.56,3368.08,2.58,C,right,0.72,8,0.68,14,0.88,6,0.58,18,-999,2.0,2,1,3,-3.0,0.0,3.0,-1.0,3.0,0.0,111
17,3,2868.06,72,3371.0,3372.51,8.91,C,right,0.72,7,0.65,15,0.85,6,0.55,18,-999,2.0,2,1,3,-3.0,-1.0,0.0,0.0,0.0,0.0,111
17,3,2868.06,73,3381.76,3383.28,2.71,B,left,0.72,7,0.65,14,0.7,6,0.63,13,-999,31.0,3,1,2,-3.0,-1.0,0.0,-1.0,3.0,-1.0,0
17,3,2868.06,74,3386.32,3387.84,2.67,B,right,0.75,8,0.65,15,0.73,7,0.63,14,-999,31.0,2,3,1,0.0,0.0,0.0,0.0,0.0,0.0,10
17,3,2868.06,75,3390.86,3392.37,3.32,B,mid,0.75,7,0.68,14,0.73,6,0.66,13,-999,31.0,3,2,1,0.0,-1.0,3.0,-1.0,0.0,-1.0,11
