subject,block,trial,effect,target,key,choice,choice_tcd,rt,pA,pB,pC,mA,mB,mC,pos_A,pos_B,pos_C,pA_top,pB_top,pC_top,dwell_A,dwell_B,dwell_C,dwell_p,dwell_m,dwell_Ap,dwell_Am,dwell_Bp,dwell_Bm,dwell_Cp,dwell_Cm,dwell_total,dwell_target,dwell_competitor,dwell_decoy
0,1,1,attraction,A,M,A,target,7220.0,0.78,0.62,0.76,11,15,10,1,0,2,True,False,False,0.5661199740578202,0.1901293238136532,0.2437507021285266,0.6179675043119036,0.3820324956880964,0.3145535784245742,0.251566395633246,0.15085732842811211,0.039271995385541075,0.15255659745921726,0.09119410466930933,5296.394999999928,0.5661199740578202,0.1901293238136532,0.2437507021285266
0,1,2,attraction,B,M,B,target,7770.0,0.78,0.65,0.63,11,15,14,0,1,2,False,False,True,0.29564964353266404,0.48494107376691403,0.21940928270042195,0.39036810708569764,0.6096318929143023,0.07143896406227267,0.2242106794703914,0.15524516222901208,0.32969591153790195,0.16368398079441293,0.05572530190600902,6873.0,0.48494107376691403,0.29564964353266404,0.21940928270042195
0,1,3,attraction,A,M,C,decoy,5870.0,0.72,0.62,0.7,12,15,11,2,0,1,False,True,True,0.29372629878215994,0.3636515909206141,0.34262211029722595,0.6357391173504731,0.36426088264952694,0.12863048009423375,0.1650958186879262,0.233418238800284,0.13023335212033013,0.27369039845595533,0.06893171184127062,4991.040999999965,0.29372629878215994,0.3636515909206141,0.34262211029722595
0,1,4,attraction,B,L,C,decoy,9550.0,0.78,0.62,0.6,11,15,14,2,1,0,True,False,True,0.18947358199451528,0.3906708418749412,0.4198555761305435,0.4694207993914116,0.5305792006085883,0.09568415890723023,0.09378942308728506,0.15193412856185196,0.23873671331308927,0.22180251192232947,0.19805306420821403,8444.448999999986,0.3906708418749412,0.18947358199451528,0.4198555761305435
0,1,5,filler,,M,C,,3740.0,0.29,0.42,0.72,34,23,13,0,2,1,False,False,False,0.32260514827772097,0.111407502729333,0.565987348992946,0.3279804113439164,0.6720195886560836,0.0,0.32260514827772097,0.0,0.111407502729333,0.3279804113439164,0.2380069376490296,3357.0450000000565,,,
0,1,6,compromise,B,L,A,competitor,3650.0,0.72,0.68,0.58,12,14,18,0,2,1,False,False,False,0.4219106680082797,0.183040399722048,0.3950489322696723,0.360350839104971,0.639649160895029,0.14293067734817314,0.2789799906601066,0.08754106073663165,0.09549933898541635,0.12987910102016623,0.26516983124950605,3141.382999999747,0.183040399722048,0.4219106680082797,0.3950489322696723
0,1,7,compromise,B,L,B,target,7650.0,0.72,0.65,0.55,11,15,18,1,0,2,True,True,True,0.4317498657152859,0.32599048741113695,0.2422596468735771,0.49674156277561987,0.5032584372243801,0.20583075195384984,0.22591911376143606,0.17982516828877457,0.1461653191223624,0.11108564253299544,0.13117400434058166,6670.529000000184,0.32599048741113695,0.4317498657152859,0.2422596468735771
0,1,8,filler,,M,C,,3140.0,0.28,0.67,0.78,35,14,12,0,2,1,True,False,True,0.3482285407037885,0.24276284831001996,0.4090086109861915,0.5658648589463782,0.43413514105362183,0.1246412728289992,0.22358726787478933,0.15647273635148207,0.0862901119585379,0.28475084976589693,0.12425776122029458,2607.483000000182,,,
0,1,9,compromise,A,R,B,competitor,8060.000000000001,0.75,0.65,0.85,12,15,9,0,2,1,True,True,True,0.356107798074108,0.42086132492151435,0.22303087700437768,0.5229689529757822,0.47703104702421784,0.19007064887565192,0.16603714919845605,0.21163213144319337,0.20922919347832097,0.12126617265693689,0.10176470434744081,7281.502999999968,0.356107798074108,0.42086132492151435,0.22303087700437768
0,1,10,compromise,B,L,C,decoy,6160.0,0.72,0.62,0.55,12,14,18,2,1,0,True,True,True,0.14275974551851728,0.517102918852931,0.34013733562855175,0.6161683886982345,0.38383161130176546,0.09887713245016039,0.0438826130683569,0.31821862958175123,0.19888428927117976,0.19907262666632292,0.14106470896222884,5309.619999999792,0.517102918852931,0.14275974551851728,0.34013733562855175
0,1,11,compromise,A,L,A,target,6850.0,0.78,0.65,0.82,12,14,9,0,2,1,True,True,False,0.25184095425591047,0.41071830877350746,0.3374407369705821,0.6102890312241709,0.3897109687758291,0.18716481300321555,0.0646761412526949,0.2979072388647149,0.11281106990879264,0.12521697935624052,0.21222375761434156,6045.505999999776,0.25184095425591047,0.41071830877350746,0.3374407369705821
0,1,12,compromise,A,L,A,target,7440.0,0.72,0.68,0.82,12,15,8,0,1,2,True,False,True,0.4209712341478503,0.32802350757810084,0.25100525827404885,0.5624806681101144,0.43751933188988557,0.2896690380451593,0.131302196102691,0.10934116919270027,0.21868233838540055,0.16347046087225486,0.087534797401794,6466.0,0.4209712341478503,0.32802350757810084,0.25100525827404885
0,1,13,compromise,B,L,C,decoy,11160.0,0.72,0.62,0.58,11,14,18,2,1,0,True,False,False,0.37380914147623007,0.18376586992940347,0.44242498859436646,0.49925592541150876,0.5007440745884912,0.22274650900533752,0.15106263247089255,0.08342869246381733,0.10033717746558612,0.19308072394235393,0.24934426465201254,9876.698000000004,0.18376586992940347,0.37380914147623007,0.44242498859436646
0,1,14,compromise,A,R,B,competitor,8970.0,0.78,0.68,0.88,11,15,9,0,2,1,True,False,False,0.3481770543488576,0.2269610320897461,0.4248619135613963,0.5145591953421252,0.4854408046578748,0.2335919352289687,0.11458511911988892,0.10523638834274253,0.12172464374700356,0.175730871770414,0.2491310417909823,7915.512999999744,0.3481770543488576,0.2269610320897461,0.4248619135613963
0,1,15,compromise,A,M,A,target,8370.0,0.75,0.68,0.88,11,15,9,1,2,0,False,True,True,0.37181060588765613,0.2641266397007722,0.36406275441157165,0.5254743445127431,0.47452565548725695,0.20789350392014788,0.16391710196750822,0.12645814788986248,0.13766849181090976,0.1911226927027327,0.17294006170883897,7314.673000000126,0.37181060588765613,0.2641266397007722,0.36406275441157165
0,1,16,compromise,A,R,A,target,10860.0,0.75,0.65,0.82,12,15,8,2,1,0,True,True,True,0.34758959407986256,0.35198135438953415,0.3004290515306033,0.6256001090966622,0.3743998909033378,0.23405055431640553,0.11353903976345701,0.1884396801897594,0.16354167419977475,0.20310987459049726,0.09731917694010601,9679.490000000136,0.34758959407986256,0.35198135438953415,0.3004290515306033
0,1,17,attraction,B,M,C,decoy,6430.0,0.72,0.62,0.6,12,15,14,0,2,1,True,True,False,0.2083264108980778,0.41646614938495663,0.3752074397169656,0.537803216664303,0.46219678333569697,0.13832425669845488,0.07000215419962291,0.2626480825569852,0.15381806682797142,0.13683087740886293,0.23837656230810264,5356.978000000177,0.41646614938495663,0.2083264108980778,0.3752074397169656
0,1,18,attraction,A,L,B,competitor,5280.0,0.78,0.68,0.76,11,15,10,2,0,1,False,False,False,0.38580194318760086,0.35131652072991726,0.2628815360824819,0.3630809806912757,0.6369190193087243,0.14564136960144414,0.24016057358615672,0.15132161022552543,0.19999491050439186,0.06611800086430615,0.19676353521817572,4401.221999999951,0.38580194318760086,0.35131652072991726,0.2628815360824819
0,1,19,compromise,B,L,B,target,6740.0,0.75,0.68,0.55,11,14,17,2,0,1,False,False,False,0.29424851068508834,0.40607278696781474,0.2996787023470969,0.3254683794848753,0.6745316205151247,0.11030076813454869,0.18394774255053967,0.13880554110333138,0.26726724586448336,0.07636207024699525,0.22331663210010166,5892.978000000032,0.40607278696781474,0.29424851068508834,0.2996787023470969
0,1,20,attraction,B,R,A,competitor,5290.0,0.75,0.62,0.6,11,15,14,2,0,1,True,True,True,0.40614709743041144,0.3763357260222793,0.2175171765473092,0.5461377853916125,0.4538622146083875,0.2510941202581951,0.15505297717221633,0.16790022385219996,0.2084355021700794,0.12714344128121738,0.0903737352660918,4514.585999999952,0.3763357260222793,0.40614709743041144,0.2175171765473092
0,1,21,compromise,B,M,C,decoy,11530.0,0.78,0.62,0.55,12,14,18,2,0,1,False,False,True,0.13870039070532594,0.31431215299198023,0.5469874563026939,0.4425251902118034,0.5574748097881966,0.058194530125436975,0.08050586057988895,0.13273699362533414,0.18157515936664612,0.25159366646103226,0.29539378984166154,9726.0,0.31431215299198023,0.13870039070532594,0.5469874563026939
0,1,22,attraction,A,M,B,competitor,12580.0,0.72,0.65,0.7,12,15,11,2,1,0,False,True,True,0.22287192802165506,0.4954129546272545,0.28171511735109045,0.5028241605670771,0.4971758394329229,0.10706067375719729,0.11581125426445778,0.22923458225844287,0.2661783723688116,0.16652890455143698,0.11518621279965346,11199.256999999925,0.22287192802165506,0.4954129546272545,0.28171511735109045
0,1,23,attraction,A,M,A,target,9910.0,0.75,0.68,0.73,11,14,10,1,0,2,False,False,False,0.46415942485230954,0.37889645843318837,0.1569441167145021,0.3040424445128802,0.6959575554871198,0.1039599973643974,0.3601994274879121,0.14338144815263043,0.23551501028055793,0.05670099899585237,0.10024311771864972,8878.414999999746,0.46415942485230954,0.37889645843318837,0.1569441167145021
0,1,24,compromise,A,M,A,target,6950.0,0.75,0.62,0.88,11,15,9,1,0,2,True,False,True,0.3979150499495035,0.35948542089629154,0.24259952915420493,0.529664740201903,0.47033525979809704,0.2381856563191891,0.15972939363031444,0.1933930208823615,0.16609240001393008,0.0980860630003524,0.14451346615385255,6117.076999999932,0.3979150499495035,0.35948542089629154,0.24259952915420493
0,1,25,compromise,B,M,A,competitor,7870.0,0.72,0.62,0.55,12,14,18,1,0,2,False,True,True,0.31461285395514027,0.3150780864421712,0.3703090596026885,0.5636943890254469,0.43630561097455306,0.0769233609477957,0.23768949300734457,0.20877000161231754,0.10630808482985367,0.2780010264653337,0.09230803313735485,6499.975999999879,0.3150780864421712,0.31461285395514027,0.3703090596026885
0,1,26,attraction,A,M,A,target,6000.0,0.72,0.65,0.7,11,15,10,1,0,2,False,False,True,0.4490207954774884,0.2870987280436099,0.26388047647890167,0.39834443771451644,0.6016555622854836,0.15142337976983647,0.2975974157076519,0.07046234605289724,0.2166363819907127,0.17645871189178275,0.08742176458711892,4953.0,0.4490207954774884,0.2870987280436099,0.26388047647890167
0,1,27,filler,,L,C,,4300.0,0.24,0.37,0.76,41,27,13,1,2,0,True,True,False,0.16789622580955857,0.29976929520184104,0.5323344789886004,0.5604991371778222,0.4395008628221778,0.16789622580955857,0.0,0.19818279522544144,0.10158649997639958,0.19442011614282217,0.33791436284577825,3770.1859999997832,,,
0,1,28,attraction,B,L,A,competitor,7230.0,0.78,0.65,0.63,12,15,14,0,1,2,True,False,False,0.40505849177324343,0.380247869256461,0.21469363897029559,0.411851594404386,0.588148405595614,0.22227663725622213,0.18278185451702134,0.13554609436093717,0.2447017748955238,0.054028862787226704,0.16066477618306887,6329.949999999895,0.380247869256461,0.40505849177324343,0.21469363897029559
0,1,29,compromise,A,L,A,target,5150.0,0.78,0.68,0.85,11,15,8,0,2,1,False,True,True,0.352788855978932,0.24898570473339432,0.3982254392876737,0.5928600341342547,0.40713996586574525,0.1509455724343294,0.20184328354460257,0.14919801153783935,0.09978769319555499,0.292716450162086,0.1055089891255877,4577.808999999834,0.352788855978932,0.24898570473339432,0.3982254392876737
0,1,30,attraction,B,L,A,competitor,5670.0,0.72,0.62,0.6,12,15,14,0,1,2,True,False,True,0.4410424804098119,0.3968564063056749,0.16210111328451313,0.5008610147495635,0.49913898525043654,0.29293730609779717,0.14810517431201478,0.1208980083127082,0.27595839799296673,0.08702570033905813,0.075075412945455,4888.418000000063,0.3968564063056749,0.4410424804098119,0.16210111328451313
0,1,31,attraction,B,L,A,competitor,6700.0,0.78,0.62,0.6,12,15,14,0,1,2,True,True,True,0.35529111757644377,0.39514967899870995,0.24955920342484628,0.5261811070151872,0.4738188929848128,0.24544841352629013,0.10984270405015366,0.13394323752795456,0.2612064414707554,0.14678945596094253,0.10276974746390376,5838.293999999762,0.39514967899870995,0.35529111757644377,0.24955920342484628
0,1,32,compromise,B,L,B,target,7730.0,0.72,0.68,0.52,12,15,18,1,0,2,False,True,True,0.3677463244222504,0.5244035435179017,0.10785013205984785,0.49716648289406784,0.5028335171059322,0.15310193572132247,0.21464438870092797,0.2951925992183528,0.2292109442995489,0.04887194795439259,0.05897818410545526,6629.569999999949,0.5244035435179017,0.3677463244222504,0.10785013205984785
0,1,33,attraction,A,M,A,target,10290.0,0.78,0.62,0.76,12,14,11,1,2,0,False,False,True,0.4234045179607456,0.19330946796691767,0.38328601407233676,0.5561041846685595,0.44389581533144057,0.23552647821256634,0.18787803974817924,0.08529811134427849,0.10801135662263918,0.2352795951117146,0.14800641896062214,8101.0,0.4234045179607456,0.19330946796691767,0.38328601407233676
0,1,34,compromise,B,M,A,competitor,11810.0,0.75,0.62,0.58,12,14,18,1,0,2,False,False,False,0.36256101381705336,0.20557026970876052,0.4318687164741861,0.3037044009818439,0.6962955990181561,0.09242912841345083,0.27013188540360256,0.050584358688742184,0.15498591102001835,0.16069091387965093,0.27117780259453517,10517.085000000196,0.20557026970876052,0.36256101381705336,0.4318687164741861
0,1,35,compromise,A,M,A,target,5640.0,0.78,0.68,0.82,12,15,9,1,2,0,True,False,True,0.5002574240724894,0.2255345378346238,0.2742080380928868,0.5443153337890205,0.4556846662109794,0.3082908174504608,0.19196660662202863,0.07699644221889017,0.1485380956157336,0.1590280741196696,0.11517996397321717,4766.454000000027,0.5002574240724894,0.2255345378346238,0.2742080380928868
0,1,36,compromise,B,M,B,target,13330.0,0.75,0.62,0.58,11,15,17,0,1,2,False,True,False,0.4576207479797031,0.3420409697425296,0.20033828227776734,0.36525089268934413,0.6347491073106559,0.11097538056756248,0.3466453674121406,0.1869949257658335,0.1550460439766961,0.06728058635594814,0.1330576959218192,10642.0,0.3420409697425296,0.4576207479797031,0.20033828227776734
0,1,37,attraction,A,L,A,target,7930.0,0.75,0.65,0.73,11,15,10,0,2,1,True,False,False,0.333531101977161,0.3275185922530761,0.33895030576976287,0.34539150475072355,0.6546084952492764,0.21206914586236403,0.12146195611479699,0.07859303042722157,0.24892556182585454,0.054729328461137934,0.28422097730862494,6998.0759999998845,0.333531101977161,0.3275185922530761,0.33895030576976287
0,1,38,compromise,A,R,A,target,8350.0,0.72,0.68,0.82,12,15,8,2,0,1,False,True,True,0.35239598038185393,0.29923817790597756,0.3483658417121685,0.6587126124034182,0.34128738759658184,0.19875188810823743,0.1536440922736165,0.17099324451770148,0.1282449333882761,0.2889674797774793,0.05939836193468922,7204.963000000047,0.35239598038185393,0.29923817790597756,0.3483658417121685
0,1,39,attraction,A,M,A,target,7200.0,0.75,0.65,0.73,12,14,11,1,2,0,False,False,False,0.4606445615122405,0.2479082739386427,0.29144716454911684,0.2592190889370933,0.7407809110629068,0.08769755190579485,0.3729470096064456,0.09296560272699102,0.1549426712116517,0.0785559343043074,0.2128912302448094,6454.0,0.4606445615122405,0.2479082739386427,0.29144716454911684
0,1,40,attraction,B,L,B,target,12650.0,0.75,0.68,0.66,11,14,13,1,0,2,True,True,True,0.25118274638538585,0.4983888097709262,0.25042844384368795,0.6672748859494653,0.33272511405053473,0.1663237104443771,0.08485903594100873,0.34235906611311406,0.1560297436578121,0.15859210939197407,0.09183633445171388,10605.823999999848,0.4983888097709262,0.25118274638538585,0.25042844384368795
0,1,41,filler,,L,A,,10560.0,0.19,0.56,0.8,52,17,12,0,1,2,True,False,False,0.46329568631160356,0.28252780616556217,0.2541765075228343,0.552357733402335,0.447642266597665,0.2962108653560679,0.16708482095553565,0.12752611165551334,0.15500169451004883,0.1286207563907538,0.1255557511320805,9135.384000000078,,,
0,1,42,attraction,A,M,B,competitor,12210.0,0.75,0.65,0.73,12,14,11,0,1,2,True,True,False,0.45226746873584117,0.3591767628513618,0.18855576841279706,0.5655721711473656,0.4344278288526345,0.272464036697402,0.17980343203843915,0.2147176434448451,0.1444591194065167,0.07839049100511845,0.1101652774076786,10511.479000000108,0.45226746873584117,0.3591767628513618,0.18855576841279706
0,1,43,attraction,B,L,A,competitor,15070.0,0.72,0.68,0.66,12,14,13,0,1,2,False,True,True,0.2948307146644648,0.33473938904313366,0.37042989629240153,0.5793884239981153,0.4206115760018847,0.07761746102840787,0.21721325363605692,0.26027772023466106,0.0744616688084726,0.24149324273504635,0.12893665355735517,13308.861000000034,0.33473938904313366,0.2948307146644648,0.37042989629240153
0,1,44,attraction,A,L,B,competitor,8870.0,0.72,0.68,0.7,11,14,10,2,0,1,False,True,True,0.30639886532906163,0.4296267276182083,0.26397440705273006,0.6053477862812855,0.39465221371871445,0.18108958579063772,0.12530927953842394,0.18856676562213887,0.24105996199606944,0.23569143486850896,0.028282972184221076,7637.103999999876,0.30639886532906163,0.4296267276182083,0.26397440705273006
0,1,45,compromise,A,M,A,target,9430.0,0.78,0.65,0.82,12,14,8,1,0,2,True,True,False,0.49322313901172216,0.23894198087141835,0.26783488011685946,0.6481114167999797,0.35188858320002026,0.34893510567757235,0.14428803333414983,0.16424143465952923,0.07470054621188914,0.13493487646287822,0.13290000365398127,8018.6830000001355,0.49322313901172216,0.23894198087141835,0.26783488011685946
0,1,46,attraction,A,L,A,target,9610.0,0.72,0.65,0.7,11,14,10,0,2,1,False,True,False,0.4014212153041936,0.2562683565128312,0.34231042818297525,0.4693415029564402,0.5306584970435597,0.2960961980551516,0.10532501724904203,0.0861581878262441,0.17011016868658707,0.08708711707504457,0.2552233111079307,8612.065999999875,0.4014212153041936,0.2562683565128312,0.34231042818297525
0,1,47,compromise,A,L,A,target,13740.0,0.78,0.62,0.85,11,15,8,0,1,2,True,True,False,0.21132875423439887,0.4063225062766979,0.38234873948890324,0.4444161648869641,0.5555838351130359,0.09778176975659059,0.11354698447780828,0.2516424493307899,0.15468005694590803,0.09499194579958364,0.2873567936893196,12179.979999999865,0.21132875423439887,0.4063225062766979,0.38234873948890324
0,1,48,compromise,B,L,B,target,5250.0,0.72,0.65,0.52,12,15,17,2,0,1,False,False,True,0.2191088654110916,0.5162899098027508,0.26460122478615766,0.3598576657091744,0.6401423342908256,0.08467239193157045,0.13443647347952115,0.14457810922315653,0.37171180057959424,0.1306071645544474,0.13399406023171023,4724.089999999851,0.5162899098027508,0.2191088654110916,0.26460122478615766
0,1,49,compromise,B,R,A,competitor,11060.0,0.72,0.68,0.55,11,14,18,2,1,0,True,False,False,0.33398351798109804,0.39809866866867266,0.2679178133502293,0.4372862365049375,0.5627137634950625,0.18836662426254072,0.14561689371855732,0.1536047737298051,0.24449389493886756,0.09531483851259163,0.17260297483763765,9264.035000000033,0.39809866866867266,0.33398351798109804,0.2679178133502293
0,1,50,compromise,A,M,A,target,4770.0,0.78,0.62,0.85,12,14,8,1,0,2,True,False,False,0.4431416303378953,0.2857496257740265,0.2711087438880782,0.5525670766955336,0.4474329233044663,0.29206035072486636,0.15108127961302895,0.19538004447800048,0.09036958129602606,0.06512668149266683,0.20598206239541136,3961.5099999997765,0.4431416303378953,0.2857496257740265,0.2711087438880782
0,1,51,attraction,B,M,A,competitor,5400.0,0.72,0.65,0.63,12,14,13,1,2,0,True,True,False,0.32370014049149953,0.24212652821411768,0.4341733312943828,0.5267018834447948,0.4732981165552051,0.21191503974629286,0.11178510074520669,0.10798440731986966,0.134142120894248,0.20680243637863238,0.2273708949157504,4472.8679999999,0.24212652821411768,0.32370014049149953,0.4341733312943828
0,1,52,filler,,M,B,,12390.0,0.27,0.47,0.86,37,21,11,0,1,2,False,True,False,0.3560699963678862,0.44859699702863154,0.19533300660348224,0.4436812091131593,0.5563187908868407,0.1528531789565711,0.2032168174113151,0.21440144067830266,0.2341955563503289,0.07642658947828555,0.1189064171251967,10781.587999999872,,,
0,1,53,attraction,B,M,B,target,7890.0,0.72,0.62,0.6,12,14,13,0,1,2,False,True,True,0.2976423373167988,0.4244184096676553,0.2779392530155459,0.4253965769733913,0.5746034230266087,0.10689971269828688,0.1907426246185119,0.20936134059227815,0.21505706907537714,0.10913552368282622,0.1688037293327197,7156.240000000107,0.4244184096676553,0.2976423373167988,0.2779392530155459
0,1,54,attraction,B,R,A,competitor,9690.0,0.72,0.62,0.6,11,15,14,2,1,0,False,False,False,0.31086141969375836,0.402958893130896,0.28617968717534564,0.4263853669062534,0.5736146330937466,0.13620316662356022,0.17465825307019814,0.15197777710545918,0.2509811160254368,0.13820442317723397,0.14797526399811167,8494.663000000059,0.402958893130896,0.31086141969375836,0.28617968717534564
0,1,55,filler,,L,B,,14420.0,0.27,0.61,0.89,37,16,11,1,0,2,False,False,True,0.48852436218107936,0.3573841049705535,0.1540915328483671,0.3674966909036936,0.6325033090963065,0.1832063149342897,0.3053180472467897,0.09020936470771239,0.26717474026284116,0.09408101126169147,0.06001052158667563,12914.401999999885,,,
0,1,56,compromise,B,M,A,competitor,5180.0,0.78,0.65,0.52,12,14,17,1,0,2,True,False,False,0.4094133769923324,0.3615713183992596,0.22901530460840805,0.37077771785884944,0.6292222821411505,0.24428111023559734,0.165132266756735,0.07540084810521146,0.28617047029404813,0.051095759518040684,0.17791954509036736,4535.758000000031,0.3615713183992596,0.4094133769923324,0.22901530460840805
0,1,57,filler,,M,B,,20820.0,0.16,0.46,0.87,62,21,11,0,1,2,False,False,False,0.3607046741497696,0.260412193779046,0.3788831320711844,0.3112923203451967,0.6887076796548033,0.11050298966775166,0.25020168448201796,0.08020555979872702,0.180206633980319,0.12058377087871804,0.2582993611924663,18153.35499999975,,,
0,1,58,filler,,L,B,,10050.0,0.31,0.38,0.85,32,26,11,1,0,2,False,True,False,0.23658673919424134,0.5369157500678122,0.22649751073794644,0.5803334410651263,0.4196665589348737,0.11789660218591806,0.11869013700832327,0.4246872537562172,0.11222849631159508,0.03774958512299107,0.18874792561495535,8821.288999999873,,,
0,1,59,attraction,A,L,A,target,9930.0,0.72,0.65,0.7,11,15,10,0,1,2,False,False,False,0.4834878540742369,0.1864276438299881,0.330084502095775,0.31737352638009403,0.682626473619906,0.15782794846970585,0.325659905604531,0.06379026701758432,0.1226373768124038,0.09575531089280384,0.2343291912029712,8496.593999999925,0.4834878540742369,0.1864276438299881,0.330084502095775
0,1,60,filler,,M,A,,12640.0,0.32,0.48,0.85,31,20,11,1,2,0,True,False,False,0.46643077481400835,0.21992378878606422,0.3136454363999274,0.49673380511703863,0.5032661948829613,0.3092905098893123,0.15714026492469607,0.10660497187443295,0.11331881691163129,0.08083832335329341,0.232807113046634,11022.0,,,
0,1,61,attraction,B,L,A,competitor,11020.0,0.78,0.62,0.6,11,14,13,0,1,2,True,False,True,0.32593581388823584,0.35706746955487595,0.3169967165568882,0.6033869137875001,0.3966130862124999,0.24000823726781353,0.08592757662042229,0.16281014517553696,0.194257324379339,0.20056853134414956,0.11642818521273865,9508.006999999867,0.35706746955487595,0.32593581388823584,0.3169967165568882
0,1,62,attraction,A,L,A,target,8790.0,0.75,0.65,0.73,12,15,11,0,2,1,True,True,True,0.3077267452538735,0.3325050925848646,0.3597681621612619,0.5694000350636963,0.43059996493630365,0.16632403032174592,0.14140271493212758,0.1934503932143406,0.139054699370524,0.2096256115276098,0.1501425506336521,7666.047999999952,0.3077267452538735,0.3325050925848646,0.3597681621612619
0,1,63,compromise,A,M,A,target,6660.0,0.72,0.65,0.82,12,15,8,1,0,2,False,True,False,0.39797231953578405,0.4542303775679273,0.1477973028962887,0.5295119191134809,0.470488080886519,0.106647413604655,0.29132490593112903,0.36949325724072174,0.08473712032720551,0.05337124826810425,0.09442605462818444,6089.420999999857,0.39797231953578405,0.4542303775679273,0.1477973028962887
0,1,64,compromise,A,R,A,target,9830.0,0.78,0.68,0.88,12,15,8,2,0,1,False,True,True,0.2239232413138458,0.601387038695111,0.1746897199910432,0.5511941728980826,0.44880582710191735,0.0724492866585282,0.15147395465531757,0.3454381987878625,0.2559488399072485,0.1333066874516919,0.041383032539351314,8626.72399999993,0.2239232413138458,0.601387038695111,0.1746897199910432
0,1,65,attraction,B,M,B,target,11890.0,0.78,0.68,0.66,11,14,13,2,1,0,True,False,False,0.37165150201231806,0.38710608227403165,0.2412424157136503,0.4441009944004668,0.5558990055995332,0.18856059939432093,0.18309090261799713,0.1956616092442852,0.1914444730297465,0.05987878576186069,0.1813636299517896,10421.053000000073,0.38710608227403165,0.37165150201231806,0.2412424157136503
0,1,66,filler,,R,A,,9380.0,0.32,0.6,0.78,31,16,12,2,0,1,True,True,True,0.4737771892740637,0.1866757579805784,0.3395470527453579,0.679859213174823,0.32014078682517705,0.3098881435352461,0.16388904573881766,0.14072672835021469,0.045949029630363694,0.2292443412893622,0.11030271145599568,7987.110999999917,,,
0,1,67,filler,,L,C,,17390.0,0.19,0.59,0.81,52,16,12,2,1,0,False,False,False,0.19014939093824335,0.34995930222626404,0.4598913068354926,0.28611448417970853,0.7138855158202915,0.040100877450729086,0.15004851348751427,0.09609700402255308,0.2538622982037109,0.14991660270642634,0.3099747041290663,15161.763000000035,,,
0,1,68,compromise,B,R,C,decoy,12550.0,0.72,0.65,0.58,11,15,17,0,1,2,False,False,False,0.31423273008043673,0.43829785863767146,0.24746941128189184,0.3523378092191404,0.6476621907808596,0.10948501611683875,0.20474771396359795,0.128090312973295,0.31020754566437647,0.11476248012900662,0.1327069311528852,11179.611999999965,0.43829785863767146,0.31423273008043673,0.24746941128189184
0,1,69,attraction,B,M,A,competitor,8109.999999999999,0.78,0.65,0.63,12,15,14,1,2,0,True,False,True,0.4544561940035992,0.2822264904275224,0.2633173155688784,0.5192271735567155,0.4807728264432844,0.34043669187088016,0.11401950213271905,0.04586180469447239,0.23636468573305,0.13292867699136304,0.13038863857751534,7086.50699999975,0.2822264904275224,0.4544561940035992,0.2633173155688784
0,1,70,compromise,B,M,A,competitor,13330.0,0.75,0.65,0.55,12,14,17,1,0,2,False,True,True,0.25315053020972955,0.5020238578279317,0.24482561196233874,0.47092278493413514,0.5290772150658649,0.09025243223949143,0.1628980979702381,0.22465652381867773,0.27736733400925395,0.15601382887596596,0.08881178308637279,11800.235999999917,0.5020238578279317,0.25315053020972955,0.24482561196233874
0,1,71,attraction,A,M,A,target,13040.0,0.78,0.68,0.76,12,15,11,1,0,2,True,True,True,0.6006435169206502,0.20721071642947061,0.19214576664987915,0.48237915068685133,0.5176208493131487,0.3248737476020208,0.2757697693186294,0.09372744204188942,0.11348327438758121,0.06377796104294112,0.12836780560693806,11085.334000000148,0.6006435169206502,0.20721071642947061,0.19214576664987915
0,1,72,compromise,A,L,A,target,8570.0,0.75,0.62,0.88,12,15,8,0,2,1,False,False,True,0.3273598447679763,0.2907670215587144,0.38187313367330933,0.46831738332590006,0.5316826166740999,0.08657744572293374,0.24078239904504253,0.12427193362999567,0.16649508792871875,0.25746800397297065,0.12440512970033864,7507.72900000005,0.3273598447679763,0.2907670215587144,0.38187313367330933
0,1,73,attraction,A,L,A,target,10050.0,0.75,0.65,0.73,12,15,11,0,1,2,True,True,True,0.46247014437889833,0.2608205856479575,0.27670926997314416,0.4483717343438736,0.5516282656561264,0.2360004466734217,0.22646969770547665,0.09320615523155239,0.16761443041640514,0.11916513243889952,0.15754413753424462,8937.17799999984,0.46247014437889833,0.2608205856479575,0.27670926997314416
0,1,74,compromise,B,L,B,target,7110.0,0.72,0.68,0.58,11,15,18,2,0,1,True,True,True,0.2543157314288727,0.4070866377091793,0.338597630861948,0.3732758757273061,0.626724124272694,0.08836532479320496,0.1659504066356677,0.17890482858513618,0.22818180912404312,0.10600572234896491,0.23259190851298311,6122.310999999871,0.4070866377091793,0.2543157314288727,0.338597630861948
0,1,75,attraction,B,M,B,target,11020.0,0.75,0.65,0.63,11,14,13,2,1,0,False,False,True,0.1708542713567839,0.46911641541038523,0.3600293132328308,0.564175041876047,0.4358249581239531,0.09851340033500837,0.07234087102177554,0.2992043551088777,0.16991206030150754,0.16645728643216082,0.19357202680067,9552.0,0.46911641541038523,0.1708542713567839,0.3600293132328308
0,2,76,filler,,L,A,,8400.0,0.28,0.67,0.78,35,14,12,0,1,2,True,True,True,0.4411209920956565,0.2406110966170328,0.31826791128731075,0.5772165741592213,0.42278342584077866,0.24866851209266091,0.19245248000299556,0.1294743314359553,0.11113676518107751,0.1990737306306051,0.11919418065670563,7198.337999999756,,,
0,2,77,attraction,B,M,B,target,8840.0,0.72,0.62,0.6,9,14,13,2,1,0,True,True,True,0.22911374438371176,0.3900201720832747,0.38086608353301354,0.47540456204985515,0.5245954379501448,0.1031915906215252,0.12592215376218657,0.1429700761176826,0.2470500959655921,0.22924289531064734,0.1516231882223662,7742.878999999957,0.3900201720832747,0.22911374438371176,0.38086608353301354
0,2,78,attraction,B,M,B,target,8840.0,0.78,0.68,0.66,8,14,13,2,1,0,False,True,True,0.24571709390964883,0.5253101895915275,0.22897271649882364,0.5330293475779347,0.4669706524220652,0.10843977751772495,0.13727731639192386,0.3007343339737887,0.22457585561773885,0.12385523608642114,0.1051174804124025,7524.913999999873,0.5253101895915275,0.24571709390964883,0.22897271649882364
0,2,79,compromise,A,R,B,competitor,7500.0,0.72,0.68,0.82,9,15,4,1,2,0,True,False,True,0.4469774463116464,0.3112987845831323,0.24172376910522128,0.5531684340559488,0.4468315659440512,0.3937311121394039,0.05324633417224247,0.06957501547791105,0.24172376910522128,0.08986230643863387,0.15186146266658743,6854.93200000003,0.4469774463116464,0.3112987845831323,0.24172376910522128
0,2,80,compromise,B,M,C,decoy,18000.0,0.72,0.62,0.55,9,14,20,2,0,1,True,False,True,0.09067271955802039,0.37364793463488377,0.5356793458070959,0.5029781340859366,0.4970218659140634,0.03995016632257654,0.05072255323544386,0.14656601851164058,0.22708191612324322,0.3164619492517195,0.2192173965553763,16245.238999999827,0.37364793463488377,0.09067271955802039,0.5356793458070959
0,2,81,compromise,B,R,C,decoy,5970.0,0.72,0.62,0.58,8,14,20,0,1,2,True,False,True,0.30485909581385373,0.30671171692278326,0.388429187263363,0.6675574343420839,0.33244256565791613,0.26554235894657074,0.03931673686728296,0.164471585114969,0.14224013180781425,0.2375434902805441,0.1508856969828189,4857.982000000076,0.30671171692278326,0.30485909581385373,0.388429187263363
0,2,82,attraction,B,R,B,target,12600.0,0.72,0.62,0.6,8,15,14,0,2,1,True,True,True,0.33493482537832403,0.3131070014420947,0.35195817317958134,0.5580092082622441,0.44199079173775585,0.14862846091017567,0.18630636446814833,0.18793665837209905,0.1251703430699956,0.2214440889799694,0.1305140841996119,11040.953999999678,0.3131070014420947,0.33493482537832403,0.35195817317958134
0,2,83,filler,,L,B,,15300.0,0.24,0.37,0.76,41,27,13,1,0,2,True,False,True,0.3200181914651709,0.2677177290987645,0.4122640794360646,0.6010763283559464,0.3989236716440537,0.19828697036307133,0.1217312211020996,0.11430303949063897,0.15341468960812552,0.28848631850223605,0.12377776093382854,13193.0,,,
0,2,84,compromise,B,L,B,target,11510.0,0.72,0.65,0.52,9,15,19,1,0,2,False,True,False,0.254788153617537,0.3254447293996993,0.4197671169827637,0.5683967585215561,0.43160324147844387,0.11576560362003005,0.13902254999750693,0.2337666773849132,0.09167805201478613,0.21886447751661287,0.2009026394661508,9631.530999999726,0.3254447293996993,0.254788153617537,0.4197671169827637
0,2,85,attraction,A,R,A,target,13570.0,0.75,0.68,0.73,8,14,7,2,1,0,False,False,False,0.32560363776700424,0.38310653220799223,0.2912898300250035,0.4583284393509776,0.5416715606490223,0.11519036193097058,0.21041327583603367,0.19984227393996498,0.18326425826802725,0.14329580348004206,0.14799402654496147,11919.399999999907,0.32560363776700424,0.38310653220799223,0.2912898300250035
0,2,86,filler,,L,C,,12660.0,0.32,0.48,0.85,31,20,11,1,2,0,True,True,True,0.26354792101342017,0.2956272062574461,0.44082487272913373,0.5935589588686297,0.40644104113137025,0.1598433350952328,0.10370458591818736,0.1551420605336083,0.14048514572383783,0.27857356323978866,0.16225130948934507,10848.122000000207,,,
0,2,87,attraction,A,M,B,competitor,13880.0,0.72,0.65,0.7,8,14,7,2,1,0,False,False,False,0.17396390411935,0.3320003342714165,0.49403576160923346,0.4197014974940072,0.5802985025059928,0.10932878720078687,0.06463511691856313,0.12733040439779364,0.20466992987362287,0.1830423058954267,0.31099345571380677,12887.731000000145,0.17396390411935,0.3320003342714165,0.49403576160923346
0,2,88,attraction,A,L,B,competitor,8930.0,0.72,0.65,0.7,8,15,7,1,0,2,False,False,True,0.24691096435404075,0.31276840913120424,0.440320626514755,0.5443681683007723,0.45563183169922766,0.11849440474233429,0.12841655961170645,0.15113641246608528,0.161631996665119,0.27473735109235276,0.16558327542240225,8098.6440000000875,0.24691096435404075,0.31276840913120424,0.440320626514755
0,2,89,attraction,B,M,B,target,6730.0,0.75,0.62,0.6,8,15,14,2,1,0,False,True,False,0.218260120585702,0.4248062015503876,0.35693367786391045,0.661498708010336,0.3385012919896641,0.1421188630490956,0.07614125753660637,0.2957795004306632,0.12902670111972436,0.2236003445305771,0.13333333333333333,5805.0,0.4248062015503876,0.218260120585702,0.35693367786391045
0,2,90,filler,,R,A,,7560.0,0.19,0.59,0.81,52,16,12,2,0,1,False,True,True,0.3715389043076126,0.31562163241609814,0.31283946327628925,0.558906867197165,0.441093132802835,0.14297258079573497,0.22856632351187764,0.2576597753367461,0.05796185707935201,0.15827451106468388,0.15456495221160535,6469.772000000114,,,
0,2,91,attraction,B,L,B,target,8150.0,0.78,0.65,0.63,9,15,14,2,0,1,False,False,False,0.4195423754254604,0.2336054015079243,0.3468522230666153,0.3623060349854249,0.6376939650145751,0.18716283323891617,0.23237954218654425,0.08342196619135178,0.15018343531657252,0.09172123555515693,0.25513098751145835,6988.567000000039,0.2336054015079243,0.4195423754254604,0.3468522230666153
0,2,92,filler,,L,B,,12620.0,0.32,0.6,0.78,31,16,12,1,0,2,True,True,False,0.3323910547858343,0.4245846667953093,0.24302427841885638,0.5365376732092647,0.4634623267907353,0.19180511106823023,0.14058594371760408,0.2513642883247889,0.17322037847052038,0.09336827381624559,0.1496560046026108,11245.790000000037,,,
0,2,93,filler,,R,A,,15840.0,0.27,0.61,0.89,37,16,11,2,0,1,False,True,True,0.41230957681635216,0.47575296521650184,0.111937457967146,0.4539060166796544,0.5460939833203455,0.10750800792015633,0.30480156889619586,0.2819832945168346,0.19376967069966722,0.0644147142426635,0.04752274372448251,13319.938000000082,,,
0,2,94,compromise,B,M,C,decoy,9330.0,0.75,0.68,0.55,8,14,19,0,2,1,False,False,False,0.10224473117509744,0.4750741184821914,0.4226811503427112,0.39943449238532813,0.6005655076146719,0.04271133460990068,0.05953339656519676,0.1908886463012321,0.2841854721809593,0.16583451147419537,0.25684663886851583,8381.850000000093,0.4750741184821914,0.10224473117509744,0.4226811503427112
0,2,95,attraction,A,M,B,competitor,8230.0,0.75,0.65,0.73,8,15,7,2,1,0,True,False,False,0.08321488979635565,0.4141611128180062,0.5026239973856381,0.36863135152046805,0.631368648479532,0.02895089972878676,0.05426399006756889,0.140207236906428,0.27395387591157816,0.19947321488525327,0.3031507825003849,6597.376999999862,0.08321488979635565,0.4141611128180062,0.5026239973856381
0,2,96,compromise,B,L,C,decoy,15180.0,0.75,0.62,0.58,9,14,20,1,2,0,True,True,False,0.18415002347426898,0.45608925225290015,0.3597607242728309,0.48737279349401585,0.5126272065059841,0.08053188834346624,0.10361813513080276,0.2172812295113137,0.2388080227415864,0.1895596756392359,0.17020104863359498,12914.138999999966,0.45608925225290015,0.18415002347426898,0.3597607242728309
0,2,97,compromise,A,L,A,target,11310.0,0.78,0.68,0.82,9,15,5,0,2,1,False,False,True,0.45899730798298916,0.31160517303782453,0.22939751897918628,0.4397129601655896,0.5602870398344104,0.15967057526069262,0.29932673272229654,0.13749410647448532,0.17411106656333925,0.14254827843041162,0.08684924054877467,9694.961000000127,0.45899730798298916,0.31160517303782453,0.22939751897918628
0,2,98,compromise,B,M,B,target,13290.0,0.72,0.68,0.58,8,15,20,2,1,0,False,True,False,0.18789631739270293,0.46596554755428277,0.34613813505301433,0.4657965760458361,0.534203423954164,0.06682823159066008,0.12106808580204284,0.2793365164749299,0.18662903107935286,0.1196318279802461,0.22650630707276823,11836.314999999944,0.46596554755428277,0.18789631739270293,0.34613813505301433
0,2,99,compromise,A,R,A,target,13510.0,0.78,0.62,0.85,9,14,4,2,0,1,True,False,True,0.29541220788877454,0.567283079477061,0.1373047126341645,0.5707674040766614,0.42923259592333857,0.19108714258617157,0.10432506530260295,0.27270356625168096,0.29457951322538006,0.1069766952388089,0.030328017395355584,12068.048999999883,0.29541220788877454,0.567283079477061,0.1373047126341645
0,2,100,compromise,B,R,B,target,10150.0,0.72,0.68,0.55,8,14,20,1,2,0,False,True,True,0.26640265449669753,0.5019690212457854,0.23162832425751706,0.5079853413563702,0.49201465864362975,0.1021571154777309,0.16424553901896666,0.27743995471875843,0.22452906652702695,0.12838827115988088,0.10324005309763618,8310.727999999886,0.5019690212457854,0.26640265449669753,0.23162832425751706
0,2,101,attraction,A,R,A,target,9020.0,0.75,0.65,0.73,9,15,8,2,1,0,False,True,False,0.3655992125649237,0.3689690039681749,0.2654317834669013,0.436738821023554,0.563261178976446,0.10968670390074316,0.2559125086641806,0.19854046404001793,0.17042853992815699,0.1285116530827929,0.13692013038410844,7968.148999999976,0.3655992125649237,0.3689690039681749,0.2654317834669013
0,2,102,attraction,B,M,B,target,11790.0,0.72,0.65,0.63,9,14,13,2,1,0,True,True,True,0.2308884176295713,0.34285399419802953,0.42625758817239917,0.6254208797154645,0.3745791202845355,0.1451749190800639,0.08571349854950738,0.20686266424827,0.13599132994975954,0.2733832963871306,0.15287429178526857,10780.098999999464,0.34285399419802953,0.2308884176295713,0.42625758817239917
0,2,103,attraction,A,R,A,target,12060.0,0.75,0.65,0.73,9,14,8,2,0,1,False,False,True,0.36886729188373546,0.2595755840277552,0.3715571240885093,0.5790799885525539,0.420920011447446,0.24115689593105558,0.12771039595267986,0.11791695737846197,0.14165862664929324,0.22000613524303642,0.15155098884547294,10108.808999999892,0.36886729188373546,0.2595755840277552,0.3715571240885093
0,2,104,compromise,B,R,B,target,16020.0,0.78,0.62,0.55,9,14,20,1,2,0,False,False,True,0.3146794325439085,0.2840833495629269,0.4012372178931646,0.47404348411838565,0.5259565158816143,0.12913863136784176,0.18554080117606672,0.1261370307468595,0.15794631881606744,0.2187678220036844,0.18246939588948022,14325.690000000177,0.2840833495629269,0.3146794325439085,0.4012372178931646
0,2,105,attraction,B,M,B,target,10810.0,0.78,0.65,0.63,9,15,14,0,1,2,False,True,True,0.3562530709694754,0.31593639424490094,0.3278105347856237,0.4281838327677669,0.571816167232233,0.10119771932080555,0.2550553516486698,0.15107521030987878,0.16486118393502217,0.17591090313708257,0.15189963164854114,9703.776000000304,0.31593639424490094,0.3562530709694754,0.3278105347856237
0,2,106,compromise,A,M,A,target,10230.0,0.75,0.65,0.82,9,15,4,1,2,0,False,True,False,0.46535506426567785,0.355233130437537,0.1794118052967851,0.48897851624977456,0.5110214837502254,0.17772876772364454,0.2876262965420333,0.23001513499587836,0.12521799544165865,0.08123461353025167,0.09817719176653344,8912.45700000017,0.46535506426567785,0.355233130437537,0.1794118052967851
0,2,107,compromise,A,R,B,competitor,6760.0,0.75,0.68,0.88,8,15,5,0,2,1,False,False,False,0.40659520285548434,0.4267293471163228,0.16667545002819284,0.3986821384834972,0.6013178615165028,0.17417852494907612,0.23241667790640824,0.17537633726673296,0.25135300984958986,0.04912727626768813,0.1175481737605047,5597.704999999609,0.40659520285548434,0.4267293471163228,0.16667545002819284
0,2,108,compromise,A,L,B,competitor,10250.0,0.72,0.65,0.82,9,15,4,2,0,1,False,True,False,0.3392612523823372,0.30718086720851145,0.35355788040915137,0.4907374302854877,0.5092625697145123,0.18335992770898224,0.15590132467335494,0.24497158658644347,0.062209280622068,0.06240591599006202,0.29115196441908936,8813.267000000225,0.3392612523823372,0.30718086720851145,0.35355788040915137
0,2,109,compromise,B,R,C,decoy,15440.0,0.72,0.62,0.55,9,14,20,0,1,2,False,False,False,0.2479008991365621,0.4898672009907641,0.2622318998726738,0.2896512417468693,0.7103487582531307,0.02877152859675857,0.21912937053980353,0.1575297531785972,0.3323374478121669,0.10334995997151356,0.15888193990116026,13311.77099999995,0.4898672009907641,0.2479008991365621,0.2622318998726738
0,2,110,attraction,B,L,B,target,8820.0,0.75,0.68,0.66,8,14,13,1,0,2,True,False,False,0.2495431249306362,0.5763970225767598,0.17405985249260394,0.526141918508721,0.4738580814912789,0.18660984983942228,0.06293327509121394,0.2658322047641094,0.31056481781265044,0.07369986390518944,0.10035998858741449,7801.914000000106,0.5763970225767598,0.2495431249306362,0.17405985249260394
0,2,111,compromise,B,R,B,target,13770.0,0.72,0.65,0.55,8,15,20,0,2,1,True,True,True,0.3450495428407123,0.3155890037520707,0.33936145340721696,0.6265100099918108,0.3734899900081892,0.2363066566121242,0.10874288622858812,0.19856492849530552,0.11702407525676523,0.19163842488438107,0.14772302852283586,11954.8050000004,0.3155890037520707,0.3450495428407123,0.33936145340721696
0,2,112,filler,,M,B,,15200.0,0.31,0.38,0.85,32,26,11,0,1,2,False,True,False,0.44904530138524895,0.317633845001872,0.23332085361287908,0.5289404717334332,0.47105952826656683,0.24447772369898915,0.20456757768625983,0.16226132534631224,0.1553725196555597,0.12220142268813179,0.11111943092474728,13355.0,,,
0,2,113,attraction,B,M,B,target,8660.0,0.72,0.62,0.6,9,15,14,2,1,0,False,False,True,0.13523180630072912,0.3962030540652084,0.46856513963406243,0.36772595955427156,0.6322740404457284,0.05502820195350117,0.08020360434722795,0.12491401843444766,0.2712890356307608,0.18778373916632274,0.2807814004677397,7269.0,0.3962030540652084,0.13523180630072912,0.46856513963406243
0,2,114,attraction,A,L,A,target,10340.0,0.75,0.65,0.73,9,15,8,0,1,2,True,False,True,0.44823351255287486,0.35558769677480345,0.19617879067232175,0.425211418653064,0.574788581346936,0.24081644855505302,0.2074170639978218,0.0835778385177967,0.27200985825700674,0.10081713158021428,0.09536165909210745,9165.108999999939,0.44823351255287486,0.35558769677480345,0.19617879067232175
0,2,115,attraction,A,L,A,target,8050.000000000001,0.72,0.65,0.7,8,15,7,0,2,1,False,True,True,0.4368124578389541,0.3423964573531378,0.22079108480790816,0.4132028528024605,0.5867971471975395,0.15466727663278912,0.28214518120616494,0.17708693691534022,0.16530952043779756,0.08144863925433116,0.139342445553577,7047.385999999708,0.4368124578389541,0.3423964573531378,0.22079108480790816
0,2,116,attraction,B,R,B,target,10990.0,0.75,0.65,0.63,8,14,13,0,2,1,False,True,True,0.2430008287563609,0.3074320677221529,0.44956710352148616,0.4120945280490187,0.5879054719509813,0.08636338723848452,0.15663744151787637,0.1415861300400155,0.16584593768213746,0.18414501077051867,0.26542209275096745,9633.711999999592,0.3074320677221529,0.2430008287563609,0.44956710352148616
0,2,117,compromise,B,M,C,decoy,14710.0,0.72,0.68,0.58,9,14,20,2,0,1,True,True,True,0.16854133857960987,0.3496999123024253,0.4817587491179648,0.5087066710904903,0.4912933289095098,0.08621777347857122,0.08232356510103865,0.1569365976145628,0.1927633146878625,0.2655522999973562,0.2162064491206086,12839.580000000075,0.3496999123024253,0.16854133857960987,0.4817587491179648
0,2,118,attraction,B,R,B,target,7510.0,0.72,0.68,0.66,9,14,13,0,2,1,True,True,True,0.3080476632328585,0.41497486359172797,0.27697747317541355,0.488825114331283,0.511174885668717,0.19750648453601924,0.11054117869683923,0.1834316884400153,0.2315431751517127,0.10788694135524846,0.1690905318201651,6404.853000000119,0.41497486359172797,0.3080476632328585,0.27697747317541355
0,2,119,compromise,B,L,B,target,9180.0,0.78,0.65,0.52,9,14,19,1,0,2,True,False,False,0.39175750645489815,0.3809150142020374,0.22732747934306444,0.4994875242178237,0.5005124757821763,0.21730608234186205,0.1744514241130361,0.21414143065727184,0.16677358354476554,0.06804001121868983,0.1592874681243746,7583.773000000045,0.3809150142020374,0.39175750645489815,0.22732747934306444
0,2,120,filler,,M,B,,11040.0,0.19,0.56,0.8,52,17,12,0,1,2,False,False,False,0.320510763385227,0.37592663312069224,0.30356260349408076,0.43343163934635515,0.5665683606536449,0.13016989076158467,0.1903408726236423,0.1393961079804335,0.23653052514025874,0.16386564060433695,0.13969696288974381,9971.584000000264,,,
0,2,121,compromise,B,L,B,target,11420.0,0.72,0.65,0.58,8,15,19,2,0,1,False,False,False,0.20428937308196815,0.38542276690449245,0.4102878600135394,0.31809624824377325,0.6819037517562268,0.06936991507212502,0.13491945800984315,0.12225190830102031,0.2631708586034721,0.12647442487062793,0.28381343514291146,9946.67499999958,0.38542276690449245,0.20428937308196815,0.4102878600135394
0,2,122,compromise,A,M,B,competitor,11350.0,0.78,0.68,0.88,9,15,4,0,1,2,True,False,False,0.31071418542549895,0.5329656599493398,0.1563201546251613,0.6373442361403301,0.3626557638596699,0.23549398131922808,0.07522020410627087,0.3012863161776779,0.23167934377166186,0.10056393864342413,0.05575621598173717,9864.371000000276,0.31071418542549895,0.5329656599493398,0.1563201546251613
0,2,123,compromise,A,M,A,target,6160.0,0.78,0.68,0.88,8,15,5,1,0,2,False,True,True,0.4616439056845532,0.36713278772282304,0.17122330659262375,0.5807300116538175,0.4192699883461825,0.2380859090722694,0.22355799661228384,0.2849771988617717,0.0821555888610513,0.0576669037197764,0.11355640287284735,5063.562999999616,0.4616439056845532,0.36713278772282304,0.17122330659262375
0,2,124,attraction,A,L,A,target,10570.0,0.72,0.62,0.7,9,15,8,0,1,2,True,False,False,0.5355635345848055,0.28470332920573704,0.17973313620945736,0.5599451004811665,0.4400548995188334,0.3524860242922191,0.1830775102925865,0.10777515190471061,0.17692817730102645,0.09968392428423685,0.08004921192522049,9269.297999999719,0.5355635345848055,0.28470332920573704,0.17973313620945736
0,2,125,attraction,B,R,B,target,7440.0,0.78,0.65,0.63,8,15,14,1,2,0,True,True,False,0.2145366127660828,0.32040258076430556,0.4650608064696116,0.45029874231983696,0.5497012576801631,0.15559608037764425,0.058940532388438535,0.17682159716531562,0.14358098359898996,0.11788106477687707,0.3471797416927346,6498.074999999953,0.32040258076430556,0.2145366127660828,0.4650608064696116
0,2,126,filler,,M,B,,22470.0,0.16,0.46,0.87,62,21,11,2,1,0,True,True,False,0.43649407916186206,0.3344155324072058,0.22909038843093213,0.5291522201633617,0.4708477798366382,0.23860296264934217,0.1978911165125199,0.16649148908014347,0.16792404332706234,0.12405776843387611,0.10503261999705601,20288.93500000029,,,
0,2,127,compromise,B,R,C,decoy,9900.0,0.75,0.62,0.58,8,15,19,1,0,2,True,False,False,0.21060399342821268,0.5023157026808158,0.2870803038909715,0.4297220356723202,0.5702779643276799,0.09012439048380498,0.1204796029444077,0.1749970939002082,0.32731860878060764,0.164600551288307,0.12247975260266447,8499.36400000006,0.5023157026808158,0.21060399342821268,0.2870803038909715
0,2,128,compromise,A,R,B,competitor,7070.0,0.78,0.68,0.85,8,15,4,0,2,1,False,False,True,0.15712211647039845,0.5754153895789643,0.2674624939506372,0.4113566704307146,0.5886433295692853,0.05775125020164543,0.09937086626875302,0.18019035328278754,0.3952250362961768,0.17341506694628167,0.09404742700435555,6199.0,0.15712211647039845,0.5754153895789643,0.2674624939506372
0,2,129,attraction,A,M,A,target,9470.0,0.75,0.65,0.73,9,14,8,1,0,2,True,True,False,0.2978285462527041,0.5370754136247377,0.1650960401225582,0.5714990853293076,0.4285009146706924,0.16606572271670486,0.13176282353599927,0.3369553415815197,0.20012007204321797,0.06847802103108304,0.09661801909147517,8280.02900000033,0.2978285462527041,0.5370754136247377,0.1650960401225582
0,2,130,filler,,R,B,,10040.0,0.29,0.42,0.72,34,23,13,0,2,1,False,False,False,0.37972672386398343,0.27538698987700716,0.34488628625900947,0.28065277588632126,0.7193472241136787,0.11518906895455563,0.26453765490942777,0.07853284307049507,0.1968541468065121,0.08693086386127057,0.2579554223977389,8811.600000000326,,,
0,2,131,attraction,B,M,B,target,9550.0,0.78,0.62,0.6,9,15,14,0,1,2,True,True,False,0.2015241039448956,0.29350464226474143,0.504971253790363,0.48891825185108956,0.5110817481489105,0.10290072499793941,0.09862337894695618,0.1539409511155172,0.13956369114922423,0.23207657573763293,0.27289467805273004,8182.643999999622,0.29350464226474143,0.2015241039448956,0.504971253790363
0,2,132,compromise,A,M,A,target,3550.0,0.78,0.65,0.82,9,14,5,1,2,0,True,True,True,0.3825307098334882,0.3404219361938761,0.2770473539726357,0.5482074516733529,0.4517925483266471,0.17038412269317096,0.21214658714031723,0.2306419221822192,0.10978001401165689,0.1471814067979627,0.12986594717467298,2887.5930000003427,0.3825307098334882,0.3404219361938761,0.2770473539726357
0,2,133,attraction,A,M,A,target,9600.0,0.78,0.62,0.76,8,15,7,1,0,2,False,True,True,0.49058191288203434,0.3015440729668177,0.20787401415114795,0.5782446661936201,0.42175533380637986,0.24285768970341431,0.24772422317862003,0.25096984635321523,0.05057422661360246,0.08441713013699058,0.12345688401415739,7889.3940000000875,0.49058191288203434,0.3015440729668177,0.20787401415114795
0,2,134,attraction,B,M,B,target,6000.0,0.78,0.62,0.6,8,15,14,2,1,0,False,False,True,0.1964170536394339,0.41748313806362175,0.38609980829694435,0.5327144761987563,0.4672855238012437,0.10905823073503806,0.08735882290439584,0.13707441101075374,0.280408727052868,0.2865818344529645,0.09951797384397984,5345.7680000001565,0.41748313806362175,0.1964170536394339,0.38609980829694435
0,2,135,filler,,M,B,,12890.0,0.27,0.47,0.86,37,21,11,0,1,2,True,True,True,0.25137606649535915,0.4173614051993158,0.331262528305325,0.6562219260111136,0.3437780739888863,0.1477899543484368,0.10358611214692237,0.32726722882474324,0.09009417637457258,0.18116474283793363,0.15009778546739136,11265.98900000006,,,
0,2,136,compromise,A,M,B,competitor,8950.0,0.78,0.62,0.85,8,15,4,0,1,2,False,False,True,0.3112130991558581,0.3850233930011355,0.3037635078430064,0.3015800069409636,0.6984199930590363,0.056642582223579624,0.2545705169322785,0.12831278830239465,0.25671060469874085,0.11662463641498934,0.18713887142801702,7785.662000000011,0.3112130991558581,0.3850233930011355,0.3037635078430064
0,2,137,compromise,A,R,A,target,10440.0,0.78,0.65,0.82,9,14,4,2,1,0,False,False,False,0.3922868200126011,0.29753356268747216,0.3101796172999267,0.2934353042482508,0.7065646957517492,0.08582924102712204,0.3064575789854791,0.08676598581322978,0.21076757687424238,0.12084007740789897,0.18933953989202776,8540.213000000454,0.3922868200126011,0.29753356268747216,0.3101796172999267
0,2,138,compromise,A,M,A,target,7530.0,0.75,0.62,0.88,9,15,4,1,2,0,True,False,False,0.36253031702945304,0.28196642028067365,0.3555032626898733,0.5956225577948099,0.40437744220519006,0.259969731092696,0.10256058593675703,0.1365469384612542,0.1454194818194194,0.19910588824085967,0.15639737444901364,6649.727999999421,0.36253031702945304,0.28196642028067365,0.3555032626898733
0,2,139,attraction,A,R,A,target,12720.0,0.78,0.68,0.76,9,15,8,2,0,1,True,True,True,0.3340278535758089,0.26629880148429114,0.3996733449399,0.6663384986475148,0.3336615013524852,0.19236805826475378,0.14165979531105513,0.21604694783930148,0.05025185364498967,0.25792349254345953,0.14174985239644042,11104.067999999737,0.3340278535758089,0.26629880148429114,0.3996733449399
0,2,140,attraction,B,M,B,target,8189.999999999999,0.72,0.62,0.6,9,15,14,2,1,0,False,True,True,0.28365369931335044,0.3477864708730124,0.36855982981363716,0.5037156296403205,0.49628437035967954,0.06824640782036819,0.21540729149298224,0.27486364966880744,0.07292282120420497,0.16060557215114482,0.20795425766249234,6842.850999999791,0.3477864708730124,0.28365369931335044,0.36855982981363716
0,2,141,compromise,B,M,B,target,13050.0,0.75,0.65,0.55,9,14,19,0,1,2,True,False,False,0.44684203610348433,0.2833980977044378,0.26975986619207787,0.5451525648266657,0.45484743517333426,0.22188079043074335,0.22496124567274098,0.15763129538336426,0.1257668023210735,0.1656404790125581,0.10411938717951978,11361.956999999471,0.2833980977044378,0.44684203610348433,0.26975986619207787
0,2,142,attraction,B,M,B,target,5790.0,0.78,0.62,0.6,8,14,13,0,1,2,False,False,False,0.4374639784599144,0.32500359330977163,0.23753242823031395,0.6511420862381628,0.3488579137618372,0.2658341643598833,0.17162981410003111,0.2403626018432709,0.08464099146650074,0.1449453200350086,0.09258710819530536,4946.693000000436,0.32500359330977163,0.4374639784599144,0.23753242823031395
0,2,143,compromise,B,M,B,target,5810.0,0.72,0.68,0.52,9,15,20,0,1,2,False,True,False,0.314536050473688,0.4675115143012675,0.21795243522504457,0.5953716974206528,0.4046283025793472,0.19001990291280962,0.12451614756087835,0.2743442838039806,0.1931672304972868,0.13100751070386255,0.08694492452118205,5083.678000000073,0.4675115143012675,0.314536050473688,0.21795243522504457
0,2,144,attraction,A,R,A,target,9410.0,0.78,0.62,0.76,9,14,8,2,0,1,False,False,False,0.31822472836766347,0.35026219507753426,0.3315130765548023,0.30031155780454377,0.6996884421954562,0.13622691544636711,0.18199781292129635,0.09744764786337128,0.25281454721416297,0.06663699449480535,0.2648760820599969,8373.726999999955,0.31822472836766347,0.35026219507753426,0.3315130765548023
0,2,145,compromise,A,M,A,target,10640.0,0.75,0.65,0.85,9,15,5,1,2,0,True,False,True,0.36172658067891517,0.4059720983016503,0.2323013210194345,0.4848124127967739,0.5151875872032261,0.21286884913683363,0.14885773154208154,0.1637879772962074,0.24218412100544295,0.10815558636373289,0.12414573465570161,9005.545000000158,0.36172658067891517,0.4059720983016503,0.2323013210194345
0,2,146,attraction,A,M,B,competitor,14610.0,0.72,0.68,0.7,8,14,7,2,1,0,False,True,False,0.22293689252419396,0.4098317503206352,0.36723135715517086,0.5782401147012632,0.42175988529873676,0.10563443825814912,0.11730245426604483,0.25044665165277985,0.15938509866785533,0.22215902479033425,0.1450723323648366,12855.655999999959,0.22293689252419396,0.4098317503206352,0.36723135715517086
0,2,147,compromise,A,M,B,competitor,12160.0,0.75,0.62,0.88,8,15,5,2,1,0,False,True,True,0.18738302805226506,0.24729694284240855,0.5653200291053264,0.5527976702274605,0.44720232977253954,0.05777065328105264,0.12961237477121243,0.16396054591382317,0.08333639692858537,0.33106647103258463,0.23425355807274173,10091.628999999724,0.18738302805226506,0.24729694284240855,0.5653200291053264
0,2,148,attraction,A,R,A,target,8420.0,0.78,0.68,0.76,8,15,7,2,0,1,False,False,True,0.32595372112603593,0.35903500517480164,0.31501127369916243,0.4837949047094254,0.5162050952905746,0.09013147660561484,0.2358222445204211,0.16562586780774027,0.19340913736706136,0.22803756029607028,0.08697371340309214,7450.527000000002,0.32595372112603593,0.35903500517480164,0.31501127369916243
0,2,149,attraction,A,M,A,target,9170.0,0.72,0.65,0.7,9,15,8,1,0,2,False,False,True,0.45994668020820106,0.3265202488256951,0.21353307096610386,0.30633489907325123,0.6936651009267487,0.12682493335026024,0.3331217468579408,0.048495620159959375,0.2780246286657357,0.1310143455630316,0.08251872540307223,7877.0,0.45994668020820106,0.3265202488256951,0.21353307096610386
0,2,150,compromise,A,M,B,competitor,11000.0,0.72,0.68,0.82,9,15,4,2,1,0,False,True,True,0.1585394424987223,0.3444862201661987,0.49697433733507906,0.6390518731167112,0.36094812688328876,0.08763328175277749,0.0709061607459448,0.21834899949203276,0.1261372206741659,0.333069591871901,0.16390474546317807,9505.521000000648,0.1585394424987223,0.3444862201661987,0.49697433733507906
0,3,151,attraction,A,R,A,target,12300.0,0.78,0.68,0.76,10,15,9,2,1,0,True,True,True,0.26878941949484075,0.3459441174881425,0.3852664630170167,0.5736532513010536,0.42634674869894645,0.1500821975806159,0.11870722191422489,0.197907051967675,0.14803706552046753,0.22566400175276266,0.15960246126425404,10808.103999999817,0.26878941949484075,0.3459441174881425,0.3852664630170167
0,3,152,compromise,A,M,A,target,9520.0,0.78,0.68,0.82,10,15,8,1,2,0,True,True,True,0.4579036343850426,0.190000916754421,0.3520954488605364,0.5067101198763345,0.4932898801236655,0.18905233717753692,0.26885129720750567,0.08906292972863483,0.10093798702578614,0.22859485297016274,0.12350059589037364,8421.012000000104,0.4579036343850426,0.190000916754421,0.3520954488605364
0,3,153,compromise,B,R,C,decoy,13030.0,0.72,0.68,0.55,9,14,25,1,0,2,True,True,True,0.30957171306302766,0.3720745272500041,0.3183537596869682,0.5963178620292422,0.4036821379707578,0.16780356105547753,0.1417681520075501,0.21015568193823622,0.16191884531176792,0.21835861903552842,0.09999514065143979,11215.495000000577,0.3720745272500041,0.30957171306302766,0.3183537596869682
0,3,154,compromise,A,M,A,target,6510.0,0.78,0.68,0.88,9,15,8,1,2,0,True,True,True,0.3091052040183412,0.43117050899441955,0.25972428698723926,0.5190961665294483,0.48090383347055166,0.1362054775041628,0.1728997265141784,0.255142990201847,0.1760275187925726,0.12774769882343856,0.13197658816380067,5675.248999999836,0.3091052040183412,0.43117050899441955,0.25972428698723926
0,3,155,compromise,B,M,B,target,19090.0,0.72,0.68,0.52,10,15,25,0,1,2,False,True,True,0.33338620116522366,0.3894414948550456,0.27717230397973075,0.39074055550429015,0.6092594444957098,0.07906555496993171,0.25432064619529193,0.18342228552712045,0.20601920932792514,0.128252715007238,0.14891958897249274,16935.313999999315,0.3894414948550456,0.33338620116522366,0.27717230397973075
0,3,156,compromise,B,M,C,decoy,12770.0,0.72,0.65,0.52,10,15,24,2,0,1,True,True,True,0.22028609000863456,0.4595467816997192,0.32016712829164623,0.6330673455598586,0.3669326544401415,0.10752274286721704,0.11276334714141753,0.30919565217782913,0.15035112952189003,0.21634895051481234,0.10381817777683393,11067.426000000443,0.4595467816997192,0.22028609000863456,0.32016712829164623
0,3,157,compromise,B,M,C,decoy,8640.0,0.75,0.65,0.55,10,14,24,0,2,1,False,True,False,0.3280185336603979,0.2282638321068411,0.44371763423276095,0.5674570727718724,0.43254292722812754,0.12823657672390298,0.19978195693649495,0.1839738348323794,0.04428999727446171,0.2552466612155901,0.1884709730171709,7338.0,0.2282638321068411,0.3280185336603979,0.44371763423276095
0,3,158,attraction,B,L,B,target,14480.0,0.72,0.65,0.63,10,14,13,2,0,1,False,False,True,0.19289423790289342,0.40021432693100323,0.4068914351661034,0.45643392960184653,0.5435660703981535,0.1187865798367818,0.07410765806611161,0.15728299398235923,0.24293133294864397,0.18036435578270546,0.22652707938339792,12131.0,0.40021432693100323,0.19289423790289342,0.4068914351661034
0,3,159,attraction,A,L,A,target,10630.0,0.78,0.62,0.76,10,14,9,0,1,2,False,True,True,0.3768844221105528,0.40737018425460636,0.21574539363484088,0.5692908989391402,0.43070910106085986,0.10329424902289223,0.27359017308766054,0.35164712451144614,0.05572305974316025,0.11434952540480178,0.10139586823003909,8955.0,0.3768844221105528,0.40737018425460636,0.21574539363484088
0,3,160,attraction,A,R,B,competitor,6100.0,0.72,0.68,0.7,9,14,8,0,2,1,False,False,True,0.4032484724198071,0.32944742401372656,0.26730410356646633,0.510640138511801,0.489359861488199,0.1708274547028051,0.23242101771700202,0.1173582620489837,0.21208916196474284,0.22245442176001223,0.04484968180645408,5016.75800000038,0.4032484724198071,0.32944742401372656,0.26730410356646633
0,3,161,attraction,A,R,A,target,12220.0,0.72,0.62,0.7,10,15,9,2,0,1,True,False,False,0.2852907639244482,0.4034756834926982,0.3112335525828537,0.4306796562704311,0.5693203437295689,0.18578396778232573,0.09950679614212243,0.11671258221857012,0.2867631012741281,0.12818310626953525,0.1830504463133184,10461.596999999601,0.2852907639244482,0.4034756834926982,0.3112335525828537
0,3,162,compromise,A,M,A,target,8420.0,0.72,0.68,0.82,10,15,7,1,2,0,False,True,True,0.3257883017511651,0.32358782008684683,0.3506238781619881,0.5442414815646923,0.4557585184353076,0.14419230973408667,0.18159599201707838,0.1806628255750324,0.14292499451181442,0.21938634625557327,0.13123753190641482,7101.627000000328,0.3257883017511651,0.32358782008684683,0.3506238781619881
0,3,163,filler,,M,B,,21260.0,0.16,0.46,0.87,62,21,11,2,1,0,False,True,True,0.3363049164575882,0.3137778252282069,0.3499172583142049,0.5296535525543159,0.4703464474456841,0.0809800886136764,0.2553248278439118,0.21699674371430097,0.09678108151390594,0.23167672022633853,0.11824053808786633,18733.0,,,
0,3,164,compromise,B,L,C,decoy,9470.0,0.75,0.62,0.58,9,15,24,2,1,0,True,True,True,0.17656411408925698,0.1529072334855324,0.6705286524252106,0.7288083634958447,0.27119163650415534,0.10571668519789428,0.07084742889136271,0.10362206556110616,0.049285167924426235,0.5194696127368442,0.1510590396883664,8116.031999999657,0.1529072334855324,0.17656411408925698,0.6705286524252106
0,3,165,attraction,A,L,A,target,11120.0,0.75,0.65,0.73,10,15,9,0,1,2,False,False,True,0.4673632994939286,0.4026852526662783,0.1299514478397931,0.45226388560989605,0.547736114390104,0.22233399369746593,0.24502930579646265,0.1632091643485553,0.239476088317723,0.06672072756387482,0.06323072027591829,9742.099999999627,0.4673632994939286,0.4026852526662783,0.1299514478397931
0,3,166,compromise,B,R,C,decoy,9950.0,0.78,0.62,0.55,10,14,25,0,1,2,False,False,False,0.4453125,0.2663690476190476,0.2883184523809524,0.4181547619047619,0.5818452380952381,0.12797619047619047,0.31733630952380953,0.08246527777777778,0.18390376984126985,0.20771329365079366,0.08060515873015874,8064.0,0.2663690476190476,0.4453125,0.2883184523809524
0,3,167,attraction,B,R,B,target,8180.0,0.72,0.62,0.6,10,15,14,1,2,0,True,True,True,0.36727367455670845,0.34410317349861047,0.2886231519446811,0.47085755476808466,0.5291424452319153,0.1675784274891472,0.19969524706756125,0.17152879629726553,0.17257437720134494,0.13175033098167194,0.15687282096300917,7005.674999999814,0.34410317349861047,0.36727367455670845,0.2886231519446811
0,3,168,compromise,B,M,C,decoy,8010.0,0.72,0.65,0.58,9,15,24,0,2,1,False,True,True,0.2991645935352485,0.3820289208688407,0.31880648559591085,0.5937594631366592,0.4062405368633409,0.164662385749289,0.13450220778595948,0.2386919134774615,0.14333700739137922,0.19040516390990864,0.12840132168600218,6564.947999999858,0.3820289208688407,0.2991645935352485,0.31880648559591085
0,3,169,compromise,A,M,A,target,17820.0,0.75,0.65,0.85,10,15,8,1,0,2,True,False,True,0.4227423465414637,0.48490186959935955,0.09235578385917675,0.4477015311337449,0.5522984688662551,0.24374350772161596,0.17899883881984774,0.1484629426837871,0.3364389269155725,0.055495080728341854,0.03686070313083491,14704.005999999586,0.4227423465414637,0.48490186959935955,0.09235578385917675
0,3,170,filler,,L,A,,14540.0,0.29,0.42,0.72,34,23,13,0,1,2,True,True,False,0.5227433588134573,0.3278559427978079,0.14940069838873474,0.5616415215182821,0.438358478481718,0.31975845669868863,0.20298490211476872,0.15067084247705553,0.17718510032075235,0.09121222234253784,0.058188476046196896,12596.995999999344,,,
0,3,171,attraction,A,R,A,target,9480.0,0.75,0.65,0.73,10,15,9,2,0,1,False,False,True,0.4768626745606479,0.3252066648695762,0.19793066056977585,0.4245380814563811,0.5754619185436188,0.2245329318424091,0.2523297427182388,0.09237577685038244,0.2328308880191938,0.10762937276358958,0.09030128780618626,8194.789000000339,0.4768626745606479,0.3252066648695762,0.19793066056977585
0,3,172,filler,,M,A,,29080.0,0.32,0.6,0.78,31,16,12,1,0,2,False,True,False,0.459344707578006,0.1873732777845131,0.35328201463748093,0.4472629571074095,0.5527370428925905,0.18348847055924256,0.2758562370187634,0.08668221374366271,0.10069106404085039,0.1770922728045042,0.17618974183297673,25483.89000000013,,,
0,3,173,filler,,M,B,,33480.0,0.31,0.38,0.85,32,26,11,0,1,2,False,True,True,0.3075539048899537,0.4348027029239568,0.2576433921860895,0.453681303146417,0.546318696853583,0.10600009708994408,0.20155380780000962,0.19641343465372182,0.23838926827023496,0.15126777140275113,0.10637562078333841,29292.425999999978,,,
0,3,174,compromise,A,L,A,target,11310.0,0.78,0.68,0.85,9,15,7,0,2,1,True,True,True,0.36485416730141584,0.2672705861509629,0.36787524654762127,0.4926738042189228,0.5073261957810772,0.17348192204524973,0.1913722452561661,0.15808540146373382,0.10918518468722906,0.16110648070993924,0.20676876583768203,9222.862999999896,0.36485416730141584,0.2672705861509629,0.36787524654762127
0,3,175,compromise,A,M,A,target,10290.0,0.75,0.65,0.82,10,15,7,1,2,0,True,True,False,0.38442594112818107,0.2453383370470271,0.37023572182479186,0.5041632461592588,0.49583675384074116,0.15714788319455847,0.2272780579336226,0.21601970212266916,0.029318634924357923,0.1309956608420312,0.23924006098276066,8527.0,0.38442594112818107,0.2453383370470271,0.37023572182479186
0,3,176,filler,,R,B,,22130.0,0.24,0.37,0.76,41,27,13,1,2,0,True,False,False,0.3168557955071485,0.30490324062534374,0.3782409638675078,0.4533675833150716,0.5466324166849283,0.16640195148666012,0.15045384402048836,0.11820657011876369,0.18669667050658006,0.16875906170964777,0.20948190215785997,19939.669999999925,,,
0,3,177,filler,,M,B,,6490.0,0.32,0.48,0.85,31,20,11,2,1,0,True,False,True,0.2402957251481229,0.3487532460325213,0.41095102881935586,0.4530254501283102,0.5469745498716898,0.16920446155713106,0.07109126359099183,0.11769956650651453,0.23105367952600672,0.1661214220646646,0.24482960675469126,5514.038999999873,,,
0,3,178,compromise,A,R,A,target,11980.0,0.78,0.65,0.82,10,14,7,2,1,0,True,True,True,0.32439501402015264,0.3749381465161597,0.30066683946368766,0.42526920992481465,0.5747307900751853,0.1421334150191978,0.18226159900095484,0.13562996300571992,0.23930818351043978,0.1475058318998969,0.15316100756379072,10609.750000000466,0.32439501402015264,0.3749381465161597,0.30066683946368766
0,3,179,compromise,B,M,C,decoy,17380.0,0.78,0.65,0.52,10,14,24,2,0,1,False,False,True,0.3719722122529027,0.20759979204788595,0.4204279956992113,0.465145966571145,0.5348540334288551,0.16322059368255787,0.20875161857034485,0.07053243587527719,0.1370673561726088,0.23139293701330996,0.18903505868590137,14759.1669999999,0.20759979204788595,0.3719722122529027,0.4204279956992113
0,3,180,attraction,B,L,B,target,7210.0,0.78,0.68,0.66,9,14,13,1,0,2,True,True,False,0.3105924983284113,0.5443979698665505,0.14500953180503817,0.7637373303313795,0.23626266966862056,0.24024462477539507,0.07034787355301624,0.4420285406632226,0.10236942920332787,0.08146416489276173,0.06354536691227645,6027.189999999944,0.5443979698665505,0.3105924983284113,0.14500953180503817
0,3,181,filler,,R,B,,15220.0,0.19,0.59,0.81,52,16,12,0,2,1,False,False,False,0.5083025850127675,0.2799541844391028,0.21174323054812974,0.33483957460924235,0.6651604253907576,0.20030567968723462,0.3079969053255328,0.08625851791173614,0.19369566652736667,0.048275377010271604,0.16346785353785814,13464.420999999624,,,
0,3,182,attraction,B,R,B,target,19320.0,0.78,0.62,0.6,9,15,14,1,2,0,True,True,False,0.3328565348946958,0.2440781202533607,0.4230653448519435,0.5207291658786478,0.47927083412135213,0.20675367409781348,0.1261028607968823,0.14310830360141974,0.10096981665194096,0.17086718817941465,0.2521981566725289,15994.87900000019,0.2440781202533607,0.3328565348946958,0.4230653448519435
0,3,183,compromise,A,L,A,target,8850.0,0.78,0.65,0.82,10,14,8,0,1,2,False,True,True,0.5038084795044392,0.2835941504416286,0.21259737005393223,0.5146806801911159,0.4853193198088841,0.22348908830578543,0.2803193911986537,0.13950474375073188,0.14408940669089676,0.1516868481345986,0.06091052191933363,7634.149000000674,0.5038084795044392,0.2835941504416286,0.21259737005393223
0,3,184,compromise,B,M,C,decoy,8109.999999999999,0.72,0.62,0.55,10,14,25,2,0,1,False,True,True,0.21060768317974962,0.44407644458796597,0.34531587223228444,0.5175176583969152,0.48248234160308473,0.11073334766913565,0.09987433551061396,0.26418833527771846,0.17988810931024746,0.14259597545006114,0.20271989678222332,6998.7949999999255,0.44407644458796597,0.21060768317974962,0.34531587223228444
0,3,185,attraction,A,R,A,target,16980.0,0.75,0.65,0.73,9,15,8,2,0,1,False,False,True,0.4039109669181707,0.48804448102689646,0.10804455205493287,0.39420553379334544,0.6057944662066546,0.18993166830895594,0.21397929860921472,0.15025158945692307,0.3377928915699734,0.05402227602746643,0.05402227602746643,14642.108000000473,0.4039109669181707,0.48804448102689646,0.10804455205493287
0,3,186,attraction,B,R,B,target,8740.0,0.72,0.68,0.66,10,14,13,0,2,1,False,True,False,0.3842501989740128,0.2685477372319587,0.34720206379402857,0.5011986704120129,0.49880132958798706,0.1027695397329831,0.28148065924102966,0.20722668589957097,0.06132105133238771,0.19120244477945889,0.15599961901456966,7044.889000000432,0.2685477372319587,0.3842501989740128,0.34720206379402857
0,3,187,attraction,B,M,A,competitor,15140.0,0.78,0.62,0.6,10,15,14,1,0,2,True,False,True,0.39601671497723434,0.4294940084842545,0.17448927653851112,0.4878778856750873,0.5121221143249127,0.2227011331239598,0.1733155818532745,0.1375570171097321,0.29193699137452245,0.12761973544139535,0.04686954109711577,12780.154999999795,0.4294940084842545,0.39601671497723434,0.17448927653851112
0,3,188,attraction,A,L,A,target,11490.0,0.72,0.65,0.7,10,15,9,0,2,1,True,False,True,0.38580858029763826,0.26957770970174505,0.34461371000061664,0.49544392444011964,0.5045560755598804,0.2071868143810883,0.17862176591655,0.09467059726533725,0.17490711243640783,0.1935865127936941,0.15102719720692254,9422.143999999855,0.38580858029763826,0.26957770970174505,0.34461371000061664
0,3,189,attraction,A,M,A,target,12110.0,0.75,0.68,0.73,9,14,8,1,0,2,False,True,False,0.4520249711243644,0.37653726244422026,0.17143776643141534,0.5871459983172664,0.41285400168273356,0.2602005233971779,0.19182444772718651,0.24634696747169083,0.13019029497252946,0.0805985074483977,0.09083925898301763,10546.100999999326,0.4520249711243644,0.37653726244422026,0.17143776643141534
0,3,190,attraction,B,R,B,target,8700.0,0.78,0.65,0.63,10,15,14,1,2,0,True,False,False,0.1817874695345169,0.35395736306280456,0.4642551674026785,0.5098360963420117,0.49016390365798834,0.09478151988267217,0.08700594965184474,0.16972192952116402,0.18423543354164054,0.24533264693817547,0.21892252046450303,7459.2599999997765,0.35395736306280456,0.1817874695345169,0.4642551674026785
0,3,191,attraction,B,M,B,target,7480.0,0.72,0.62,0.6,9,15,14,2,1,0,True,False,False,0.16577176866347695,0.3858980164614723,0.4483302148750507,0.31054992684893384,0.6894500731510662,0.04012112224688279,0.12565064641659415,0.19920603720254595,0.1866919792589264,0.0712227673995051,0.3771074474755456,6430.527999999933,0.3858980164614723,0.16577176866347695,0.4483302148750507
0,3,192,attraction,A,M,A,target,11400.0,0.78,0.62,0.76,9,15,8,1,0,2,True,False,False,0.39130329170807104,0.35374627614685206,0.2549504321450769,0.4619300727506624,0.5380699272493376,0.23320952894076757,0.15809376276730347,0.12084119762200601,0.23290507852484604,0.10787934618788882,0.14707108595718807,9797.982999999542,0.39130329170807104,0.35374627614685206,0.2549504321450769
0,3,193,compromise,B,L,B,target,13470.0,0.72,0.68,0.58,9,15,25,2,0,1,False,True,False,0.25333898372714936,0.407413802829672,0.33924721344317865,0.49229010185842165,0.5077098981415784,0.1101586008671006,0.14318038286004878,0.2555480033516863,0.15186579947798567,0.12658349763963472,0.21266371580354393,11628.687999999616,0.407413802829672,0.25333898372714936,0.33924721344317865
0,3,194,filler,,M,B,,14550.0,0.27,0.47,0.86,37,21,11,0,1,2,True,False,False,0.45982864532816037,0.2922728742321371,0.24789848043970256,0.5413837698027805,0.45861623019721953,0.29890074361461366,0.1609279017135467,0.13126414484319432,0.16100872938894278,0.11121888134497251,0.13667959909473004,12372.0,,,
0,3,195,attraction,B,R,B,target,10030.0,0.72,0.62,0.6,10,15,14,1,2,0,False,False,False,0.21982998933995304,0.406800472352706,0.373369538307341,0.3367218820857897,0.6632781179142103,0.054454511125439885,0.16537547821451315,0.10994296866465395,0.296857503688052,0.17232440229569584,0.20104513601164514,8704.512999999337,0.406800472352706,0.21982998933995304,0.373369538307341
0,3,196,attraction,B,M,B,target,6680.0,0.78,0.65,0.63,9,15,14,2,1,0,True,True,False,0.2444317541110926,0.44486832732991854,0.3106999185589888,0.535579667188924,0.464420332811076,0.15842798877570818,0.08600376533538444,0.30327897050408564,0.1415893568258329,0.07387270790913021,0.23682721064985862,5523.013999999501,0.44486832732991854,0.2444317541110926,0.3106999185589888
0,3,197,compromise,A,R,B,competitor,12670.0,0.72,0.65,0.82,10,15,7,0,2,1,False,False,False,0.38047622594772335,0.28710273396246677,0.3324210400898099,0.33449704300111616,0.6655029569988838,0.15256813427581165,0.2279080916719117,0.07807683712667038,0.2090258968357964,0.10385207159863416,0.22856896849117572,10591.989000000525,0.38047622594772335,0.28710273396246677,0.3324210400898099
0,3,198,compromise,B,L,B,target,8350.0,0.75,0.68,0.55,9,14,24,2,0,1,False,True,True,0.22123970476420796,0.5216176559265153,0.2571426393092768,0.47476363323835596,0.5252363667616441,0.07263759730353694,0.148602107460671,0.2338396940903651,0.2877779618361502,0.1682863418444539,0.08885629746482286,7213.895000000019,0.5216176559265153,0.22123970476420796,0.2571426393092768
0,3,199,compromise,B,M,C,decoy,11080.0,0.72,0.65,0.55,9,15,25,0,2,1,True,False,False,0.26349805331869214,0.2981333739831719,0.43836857269813595,0.5740062955398713,0.4259937044601288,0.18738330670872752,0.07611474660996459,0.13304525872014245,0.16508811526302947,0.25357773011100126,0.18479084258713474,9643.334999999963,0.2981333739831719,0.26349805331869214,0.43836857269813595
0,3,200,attraction,B,R,B,target,8740.0,0.78,0.62,0.6,9,14,13,0,2,1,True,True,True,0.15995796893894193,0.46961305036035045,0.3704289807007076,0.5981323065504679,0.40186769344953216,0.11286508005724685,0.04709288888169507,0.24204166352603054,0.22757138683431993,0.24322556296719047,0.12720341773351715,7601.99700000044,0.46961305036035045,0.15995796893894193,0.3704289807007076
0,3,201,attraction,B,R,B,target,11660.0,0.72,0.62,0.6,10,14,13,1,2,0,True,True,True,0.2722086140828326,0.2985472721191249,0.4292441137980425,0.6301468565473028,0.3698531434526972,0.12795867048363457,0.14424994359919804,0.18100264331062899,0.11754462880849591,0.32118554275303923,0.10805857104500326,9698.444000000134,0.2985472721191249,0.2722086140828326,0.4292441137980425
0,3,202,compromise,B,L,C,decoy,12400.0,0.75,0.62,0.58,10,14,25,2,1,0,True,False,True,0.22165561600988212,0.44184270619940896,0.33650167779070894,0.5651327914472789,0.43486720855272115,0.11160796234700483,0.1100476536628773,0.233954519755358,0.20788818644405094,0.21957030934491603,0.1169313684457929,10895.27999999933,0.44184270619940896,0.22165561600988212,0.33650167779070894
0,3,203,compromise,B,L,C,decoy,6220.0,0.72,0.68,0.58,10,14,25,2,1,0,True,False,False,0.19988288112434122,0.2633222721061878,0.536794846769471,0.5301581104821393,0.46984188951786066,0.10247901620144446,0.09740386492289674,0.16416162404840914,0.09916064805777865,0.2635174702322858,0.27327737653718526,5123.0,0.2633222721061878,0.19988288112434122,0.536794846769471
0,3,204,filler,,M,C,,15940.0,0.28,0.67,0.78,35,14,12,2,0,1,False,True,False,0.2032808927552083,0.37215037280238955,0.4245687344424021,0.46625653092392044,0.5337434690760796,0.07780601525983383,0.12547487749537448,0.26239607753362953,0.10975429526876002,0.12605443813045705,0.2985142963119451,13803.55999999959,,,
0,3,205,compromise,A,M,A,target,12810.0,0.78,0.62,0.85,10,14,7,1,0,2,False,False,False,0.32847402980920615,0.46903982251841053,0.2024861476723833,0.36593114597332727,0.6340688540266727,0.11439329780862283,0.21408073200058333,0.17118042416708,0.2978593983513306,0.08035742399762447,0.12212872367475883,10988.405999999493,0.32847402980920615,0.46903982251841053,0.2024861476723833
0,3,206,compromise,A,M,A,target,6790.0,0.75,0.62,0.88,9,15,8,1,2,0,True,True,True,0.40901028733593475,0.24813763746009224,0.34285207520397304,0.4400496630010642,0.5599503369989358,0.17115998581057112,0.2378503015253636,0.09453706988293721,0.153600567577155,0.17435260730755586,0.16849946789641718,5638.0,0.40901028733593475,0.24813763746009224,0.34285207520397304
0,3,207,compromise,A,R,A,target,6480.0,0.78,0.68,0.88,10,15,7,2,1,0,True,True,True,0.30567527345518997,0.2461009101687837,0.4482238163760264,0.4320399109181792,0.5679600890818207,0.10255670523831371,0.20311856821687624,0.12014790682293014,0.12595300334585355,0.2093352988569354,0.23888851751909096,5684.659999999683,0.30567527345518997,0.2461009101687837,0.4482238163760264
0,3,208,attraction,B,L,B,target,20350.0,0.75,0.68,0.66,9,14,13,1,0,2,False,True,True,0.26060575185557483,0.4163465439232017,0.3230477042212235,0.42052767905957994,0.5794723209404201,0.12504894953931214,0.13555680231626271,0.1818728866699908,0.2344736572532109,0.11360584285027699,0.20944186137094647,18176.88199999975,0.4163465439232017,0.26060575185557483,0.3230477042212235
0,3,209,attraction,A,M,A,target,7050.0,0.72,0.65,0.7,9,15,8,1,2,0,False,True,True,0.3054161718889527,0.2458645484084656,0.4487192797025817,0.4363601368536307,0.5636398631463694,0.11106749706923982,0.19434867481971288,0.07827457137668979,0.16758997703177583,0.24701806840770105,0.20170121129488064,6068.38199999975,0.3054161718889527,0.2458645484084656,0.4487192797025817
0,3,210,compromise,A,L,A,target,11710.0,0.75,0.62,0.88,10,15,7,0,1,2,True,True,True,0.29906305701171854,0.513993448884898,0.18694349410338348,0.436337040506465,0.5636629594935351,0.13225038289024704,0.16681267412147152,0.22831789296067992,0.28567555592421806,0.075768764655538,0.11117472944784547,9885.340000000317,0.29906305701171854,0.513993448884898,0.18694349410338348
0,3,211,compromise,A,R,A,target,18050.0,0.72,0.68,0.82,10,15,7,2,0,1,False,True,False,0.3118920422402076,0.4461331442973597,0.24197481346243274,0.46500971351510967,0.5349902864848903,0.1450581996934479,0.16683384254675968,0.2414680599263858,0.2046650843709739,0.07848345389527596,0.1634913595671568,15786.767000000458,0.3118920422402076,0.4461331442973597,0.24197481346243274
0,3,212,compromise,B,M,C,decoy,17690.0,0.72,0.62,0.58,9,14,25,0,2,1,True,True,False,0.2736894377020757,0.32834877290447545,0.3979617893934488,0.40313315164613095,0.596866848353869,0.19742820954543422,0.07626122815664153,0.14191789068120073,0.18643088222327475,0.063787051419496,0.3341747379739528,15276.43899999978,0.32834877290447545,0.2736894377020757,0.3979617893934488
0,3,213,filler,,R,B,,9770.0,0.27,0.61,0.89,37,16,11,0,2,1,True,False,False,0.2926356589147287,0.3544089147286822,0.35295542635658916,0.5043604651162791,0.4956395348837209,0.19270833333333334,0.09992732558139535,0.15637112403100775,0.1980377906976744,0.15528100775193798,0.19767441860465115,8256.0,,,
0,3,214,compromise,A,R,B,competitor,8730.0,0.75,0.68,0.88,9,15,8,1,2,0,False,True,True,0.2998732473181677,0.4324074246573291,0.26771932802450316,0.5266611880803888,0.4733388119196113,0.12530368548775717,0.17456956183041059,0.2564578662907097,0.17594955836661935,0.14489963630192182,0.12281969172258135,7246.394999999553,0.2998732473181677,0.4324074246573291,0.26771932802450316
0,3,215,attraction,B,R,B,target,8000.0,0.75,0.62,0.6,9,15,14,0,2,1,True,True,True,0.3586441015217012,0.21830100975244732,0.4230548887258515,0.5662403710787398,0.4337596289212602,0.22649614843149593,0.13214795309020524,0.15845658448344976,0.05984442526899756,0.18128763816379415,0.2417672505620574,6613.79899999965,0.21830100975244732,0.3586441015217012,0.4230548887258515
0,3,216,attraction,A,M,A,target,9350.0,0.75,0.65,0.73,10,14,9,1,2,0,True,False,False,0.4216719979656089,0.21306988920712272,0.3652581128272684,0.49352809448839574,0.5064719055116043,0.22914249151114008,0.19252950645446879,0.11905446841557062,0.09401542079155209,0.14533113456168503,0.21992697826558336,8029.938000000082,0.4216719979656089,0.21306988920712272,0.3652581128272684
0,3,217,compromise,B,M,B,target,11340.0,0.72,0.62,0.55,10,14,25,2,1,0,False,False,False,0.2820285808575399,0.41737764753062895,0.3005937716118312,0.48888335652967074,0.5111166434703293,0.13168097048672187,0.15034761037081804,0.18747799187940062,0.2298996556512283,0.1697243941635483,0.1308693774482829,9857.157000000123,0.41737764753062895,0.2820285808575399,0.3005937716118312
0,3,218,attraction,A,M,A,target,8560.0,0.72,0.65,0.7,9,15,8,1,2,0,True,True,True,0.4040375015494133,0.24649831536008668,0.34946418309050004,0.47545158491373557,0.5245484150862645,0.1751462087150471,0.2288912928343662,0.11620634866975516,0.13029196669033152,0.1840990275289333,0.16536515556156672,7099.439999999944,0.4040375015494133,0.24649831536008668,0.34946418309050004
0,3,219,filler,,R,B,,23580.0,0.19,0.56,0.8,52,17,12,1,2,0,True,False,False,0.40744075286483294,0.3598526047173767,0.23270664241779038,0.4836647862016819,0.516335213798318,0.30138992387443436,0.10605082899039858,0.08073887841162139,0.2791137263057553,0.10153598391562618,0.1311706585021642,20820.20499999961,,,
0,3,220,attraction,A,L,A,target,9890.0,0.75,0.65,0.73,10,14,9,0,2,1,False,True,True,0.6501451225176663,0.14614651272729287,0.20370836475504087,0.3833013430816147,0.6166986569183853,0.164445122529798,0.4856999999878682,0.10385369934269484,0.04229281338459802,0.11500252120912183,0.08870584354591905,8251.992999999784,0.6501451225176663,0.14614651272729287,0.20370836475504087
0,3,221,attraction,A,L,A,target,10530.0,0.72,0.65,0.7,9,14,8,0,2,1,False,False,False,0.4086824726642849,0.24066255277687562,0.3506549745588394,0.23438345783262965,0.7656165421673704,0.07210133160116922,0.3365811410631157,0.09645988957453719,0.14420266320233843,0.06582223665692324,0.2848327379019162,9237.0,0.4086824726642849,0.24066255277687562,0.3506549745588394
0,3,222,attraction,B,R,C,decoy,13030.0,0.75,0.65,0.63,9,14,13,1,0,2,True,True,False,0.34295200774277435,0.2937291028285778,0.36331888942864793,0.6429695026126127,0.3570304973873874,0.21962443845596386,0.12332756928681048,0.17256023528727463,0.12116886754130314,0.2507848288693741,0.11253406055927379,10654.552000000607,0.2937291028285778,0.34295200774277435,0.36331888942864793
0,3,223,attraction,B,L,B,target,13530.0,0.78,0.65,0.63,10,15,14,1,0,2,True,True,True,0.286757531801357,0.5181900488680556,0.19505241933058734,0.7498269187849325,0.25017308121506754,0.21878936134937807,0.06796817045197892,0.4293292877626321,0.08886076110542364,0.10170826967292235,0.093344149657665,11152.278999999631,0.5181900488680556,0.286757531801357,0.19505241933058734
0,3,224,compromise,A,M,A,target,9070.0,0.78,0.62,0.85,9,15,7,1,0,2,True,True,True,0.4386880795679445,0.22158105845899498,0.3397308619730605,0.6347123855114395,0.36528761448856056,0.2905659589676381,0.1481221206003064,0.1503968053791729,0.07118425307982205,0.19374962116462846,0.14598124080843208,7473.563000000082,0.4386880795679445,0.22158105845899498,0.3397308619730605
0,3,225,attraction,A,R,A,target,6100.0,0.78,0.68,0.76,9,15,8,2,0,1,False,False,False,0.2796004163405216,0.3331634629723582,0.3872361206871202,0.4974088761880542,0.5025911238119458,0.14204716425910946,0.13755325208141214,0.21002958628154927,0.12313387669080893,0.14533212564739542,0.2419039950397248,5270.68600000022,0.2796004163405216,0.3331634629723582,0.3872361206871202
1,1,1,attraction,A,L,A,target,5220.0,0.72,0.65,0.7,4,15,3,0,1,2,False,False,True,0.3605241634978505,0.41859950909126503,0.2208763274108845,0.4746913899195297,0.5253086100804704,0.16268972904131535,0.19783443445653512,0.182129173317336,0.23647033577392904,0.12987248756087835,0.09100383985000615,4296.521999999691,0.3605241634978505,0.41859950909126503,0.2208763274108845
1,1,2,filler,,M,C,,3270.0,0.16,0.46,0.87,62,21,11,2,0,1,False,True,True,0.3855587331085043,0.17916902139183394,0.43527224549966176,0.5476640381773065,0.45233596182269353,0.20963994339724787,0.17591878971125646,0.057285333370178194,0.12188368802165574,0.2807387614098804,0.15453348408978135,2461.3629999996174,,,
1,1,3,attraction,B,R,A,competitor,5780.0,0.75,0.68,0.66,4,14,13,2,1,0,True,False,True,0.2857142857142857,0.4045896216663221,0.3096960926193922,0.492040520984081,0.507959479015919,0.15670870374198884,0.1290055819722969,0.1736613603473227,0.23092826131899938,0.1616704568947695,0.1480256357246227,4837.0,0.4045896216663221,0.2857142857142857,0.3096960926193922
1,1,4,compromise,B,M,C,decoy,7540.0,0.72,0.62,0.58,4,14,35,0,2,1,False,False,False,0.21673768358122308,0.3371830531285744,0.4460792632902026,0.5550404147799587,0.44495958522004125,0.15419566566221332,0.06254201791900976,0.1545155736822594,0.18266747944631495,0.24632917543548602,0.19975008785471654,6251.796999999817,0.3371830531285744,0.21673768358122308,0.4460792632902026
1,1,5,attraction,B,R,B,target,4810.0,0.72,0.62,0.6,5,15,14,0,2,1,False,False,False,0.20583091746862844,0.32373444885613617,0.47043463367523536,0.37584321939737303,0.6241567806026269,0.07138498730836011,0.13444593016026835,0.13444593016026835,0.18928851869586782,0.17001230192874459,0.3004223317464908,3964.418999999696,0.32373444885613617,0.20583091746862844,0.47043463367523536
1,1,6,attraction,B,M,A,competitor,3830.0,0.78,0.62,0.6,4,15,14,1,0,2,True,True,True,0.3776595744680851,0.2762828535669587,0.3460575719649562,0.5444305381727159,0.4555694618272841,0.23967459324155194,0.13798498122653316,0.10669586983729662,0.16958698372966208,0.19806007509386733,0.14799749687108887,3196.0,0.2762828535669587,0.3776595744680851,0.3460575719649562
1,1,7,compromise,B,M,C,decoy,9030.0,0.75,0.65,0.55,5,14,34,0,2,1,True,False,True,0.3056900284876513,0.2070929464402921,0.48721702507205655,0.6161616898367668,0.3838383101632332,0.18651389893238887,0.11917612955526244,0.09976930627249293,0.10732364016779919,0.32987848463188496,0.15733854044017162,7677.712000000058,0.2070929464402921,0.3056900284876513,0.48721702507205655
1,1,8,compromise,B,R,B,target,6750.0,0.72,0.68,0.52,5,15,35,0,2,1,True,True,True,0.17669764544166588,0.38794590231520615,0.43535645224312797,0.4711937211777757,0.5288062788222243,0.08013611525664284,0.09656153018502305,0.11464607793445176,0.27329982438075434,0.2764115279866811,0.15894492425644688,6027.244999999697,0.38794590231520615,0.17669764544166588,0.43535645224312797
1,1,9,attraction,B,M,B,target,6390.0,0.78,0.65,0.63,5,15,14,2,1,0,True,True,True,0.2113734458838549,0.45251433927123497,0.3361122148449101,0.5031256729827362,0.49687432701726375,0.1340278262241125,0.07734561965974243,0.21307959925870218,0.23943474001253282,0.1560182474999216,0.1800939673449885,5275.02399999983,0.45251433927123497,0.2113734458838549,0.3361122148449101
1,1,10,compromise,A,R,B,competitor,7390.0,0.75,0.62,0.88,4,15,3,0,2,1,True,True,False,0.3267089165531596,0.4024162102499337,0.27087487319690673,0.5445537320511374,0.4554462679488626,0.22844100024615455,0.09826791630700503,0.21656860879269202,0.18584760145724166,0.09954412301229082,0.1713307501846159,6268.57699999983,0.3267089165531596,0.4024162102499337,0.27087487319690673
1,1,11,compromise,A,M,B,competitor,5510.0,0.75,0.65,0.85,5,15,3,0,1,2,True,False,True,0.2500089674780869,0.44055901745828263,0.30943201506363044,0.6149745215580253,0.38502547844197466,0.2500089674780869,0.0,0.11495658660185154,0.3256024308564311,0.2500089674780869,0.05942304758554356,4627.834000000061,0.2500089674780869,0.44055901745828263,0.30943201506363044
1,1,12,compromise,A,M,B,competitor,3400.0,0.78,0.62,0.85,4,15,2,2,1,0,True,False,False,0.35149245618555935,0.2700690351151334,0.37843850869930723,0.4396922170206283,0.5603077829793718,0.24619971844446936,0.10529273774108999,0.08238814868702171,0.1876808864281117,0.11110434988913717,0.26733415881017003,2925.1779999999417,0.35149245618555935,0.2700690351151334,0.37843850869930723
1,1,13,filler,,M,C,,5690.0,0.32,0.48,0.85,31,20,11,0,2,1,True,False,False,0.2713525026624068,0.3263045793397231,0.4023429179978701,0.5689030883919063,0.4310969116080937,0.13652822151224708,0.13482428115015974,0.20021299254526093,0.1260915867944622,0.2321618743343983,0.17018104366347178,4695.0,,,
1,1,14,compromise,A,R,B,competitor,4070.000000000001,0.78,0.68,0.85,4,15,2,1,2,0,False,True,True,0.408846776987995,0.3789743301585359,0.21217889285346914,0.6005183603517443,0.39948163964825567,0.1360871519680871,0.2727596250199079,0.2522523155301881,0.12672201462834776,0.21217889285346914,0.0,3416.9279999999126,0.408846776987995,0.3789743301585359,0.21217889285346914
1,1,15,compromise,B,M,B,target,3980.0,0.75,0.68,0.55,4,14,34,2,1,0,True,True,True,0.2591254684902216,0.44569950319392554,0.2951750283158529,0.5048577552154744,0.4951422447845257,0.09243476878367,0.1666906997065516,0.24542417082930718,0.20027533236461836,0.16699881560249716,0.12817621271335575,3245.5319999999774,0.44569950319392554,0.2591254684902216,0.2951750283158529
1,1,16,compromise,A,R,B,competitor,7220.0,0.72,0.68,0.82,5,15,2,0,2,1,True,True,False,0.2687524342160198,0.4159501738981521,0.3152973918858281,0.5238507794570002,0.4761492205429998,0.1606853153769883,0.10806711883903151,0.23694839770098897,0.17900177619716312,0.12621706637902294,0.18908032550680517,6005.526999999885,0.2687524342160198,0.4159501738981521,0.3152973918858281
1,1,17,compromise,A,L,B,competitor,3940.0,0.72,0.68,0.82,5,15,2,2,0,1,False,False,False,0.3739939120295561,0.3138024744501188,0.3122036135203251,0.3847578411592836,0.6152421588407164,0.14486720703121148,0.22912670499834467,0.12192733697408561,0.19187513747603313,0.11796329715398647,0.19424031636633862,3382.407999999821,0.3739939120295561,0.3138024744501188,0.3122036135203251
1,1,18,compromise,A,L,B,competitor,3870.0,0.78,0.65,0.82,5,14,2,2,0,1,False,False,False,0.44622738135882556,0.4318880163878457,0.12188460225332878,0.6732673267326733,0.32673267326732675,0.30419938545578695,0.14202799590303858,0.24718333902355752,0.18470467736428817,0.12188460225332878,0.0,2929.0,0.44622738135882556,0.4318880163878457,0.12188460225332878
1,1,19,attraction,A,L,B,competitor,4710.0,0.72,0.65,0.7,4,14,3,2,0,1,True,True,True,0.2569866994206659,0.5092970503188072,0.23371625026052684,0.5478673139224038,0.45213268607759616,0.19577530054290884,0.061211398877757034,0.219298689367832,0.28999836095097525,0.132793324011663,0.10092292624886387,3953.512000000017,0.2569866994206659,0.5092970503188072,0.23371625026052684
1,1,20,attraction,A,L,B,competitor,5560.0,0.75,0.65,0.73,5,15,4,2,0,1,False,False,True,0.23341017398792505,0.4142281793043641,0.35236164670771086,0.5013023688672289,0.4986976311327711,0.17992479956356092,0.05348537442436412,0.15236378612267737,0.26186439318168675,0.16901378318099064,0.18334786352672022,4674.174999999959,0.23341017398792505,0.4142281793043641,0.35236164670771086
1,1,21,compromise,B,R,A,competitor,9910.0,0.75,0.62,0.58,5,14,35,2,1,0,False,True,True,0.29876830109415037,0.4217677211022959,0.27946397780355375,0.6055418613035729,0.39445813869642715,0.12646075649748068,0.17230754459666967,0.315713468351254,0.10605425275104188,0.16336763645483818,0.11609634134871559,8165.632000000041,0.4217677211022959,0.29876830109415037,0.27946397780355375
1,1,22,attraction,B,L,B,target,4250.0,0.75,0.65,0.63,4,14,13,1,0,2,False,False,False,0.4142544741849859,0.3304556381620356,0.25528988765297855,0.5141989340185947,0.48580106598140527,0.24749477657960514,0.16675969760538073,0.1227729994056309,0.2076826387564047,0.14393115803335868,0.11135872961961986,3591.9949999997625,0.3304556381620356,0.4142544741849859,0.25528988765297855
1,1,23,compromise,B,L,B,target,5850.0,0.72,0.68,0.58,4,15,35,1,0,2,True,False,True,0.3335618628860908,0.5085527291514186,0.15788540796249062,0.4398236364669382,0.5601763635330619,0.21640088935020615,0.11716097353588467,0.1898029432648809,0.3187497858865377,0.0336198038518511,0.12426560411063951,4699.610999999946,0.5085527291514186,0.3335618628860908,0.15788540796249062
1,1,24,compromise,B,L,B,target,8480.0,0.72,0.65,0.55,4,15,35,1,0,2,False,True,True,0.2982186532211854,0.46361732430699354,0.23816402247182109,0.5712415441499332,0.4287584558500667,0.19059443337824566,0.10762421984293971,0.23604188146729724,0.22757544283969633,0.14460522930439038,0.09355879316743071,6327.571999999724,0.46361732430699354,0.2982186532211854,0.23816402247182109
1,1,25,compromise,B,L,B,target,5420.0,0.72,0.65,0.52,5,15,34,1,0,2,False,False,True,0.35330191768731195,0.3539143734049537,0.2927837089077344,0.5084267242122105,0.49157327578778953,0.19863674021878347,0.15466517746852845,0.22751638290318452,0.12639799050176917,0.08227360109024248,0.21051010781749194,4351.334999999875,0.3539143734049537,0.35330191768731195,0.2927837089077344
1,1,26,compromise,A,R,B,competitor,8640.0,0.75,0.62,0.88,5,15,2,1,2,0,True,True,False,0.308756355421522,0.44781996608575103,0.24342367849272695,0.516790008325357,0.483209991674643,0.1526294443882558,0.15612691103326623,0.28483802042826434,0.16298194565748672,0.07932254350883688,0.16410113498389006,7148.0309999998135,0.308756355421522,0.44781996608575103,0.24342367849272695
1,1,27,compromise,A,M,B,competitor,9810.0,0.72,0.65,0.82,5,15,2,0,1,2,True,False,False,0.37138762458914865,0.43773839441098045,0.19087398099987093,0.537928951487541,0.46207104851245895,0.2760725204116907,0.09531510417745791,0.17458582418191188,0.26315257022906857,0.08727060689393844,0.1036033741059325,8204.366000000067,0.37138762458914865,0.43773839441098045,0.19087398099987093
1,1,28,compromise,B,R,B,target,8880.0,0.78,0.62,0.55,5,14,35,0,2,1,False,True,True,0.31713641643470464,0.3365635133087302,0.3463000702565652,0.5949329690270224,0.40506703097297764,0.18655945384536923,0.1305769625893354,0.2169778775366789,0.11958563577205128,0.19139563764497425,0.15490443261159095,6823.561999999918,0.3365635133087302,0.31713641643470464,0.3463000702565652
1,1,29,filler,,R,C,,3770.0,0.27,0.47,0.86,37,21,11,0,1,2,True,False,True,0.4098640608916565,0.18160649858241748,0.408529440525926,0.6793776450918295,0.3206223549081705,0.31616464792699456,0.09369941296466193,0.06814502761066323,0.11346147097175427,0.29506796955417175,0.11346147097175427,2934.9169999999285,,,
1,1,30,attraction,B,M,B,target,8960.0,0.78,0.65,0.63,4,15,14,0,1,2,True,True,True,0.3259378781766841,0.46255210434314914,0.21151001748016673,0.6136883151808525,0.3863116848191475,0.25426919456770203,0.07166868360898211,0.2878848998251983,0.17466720451795079,0.07153422078795213,0.1399757966922146,7437.0,0.46255210434314914,0.3259378781766841,0.21151001748016673
1,1,31,attraction,B,L,B,target,6380.0,0.72,0.68,0.66,5,14,13,1,0,2,False,True,True,0.42424433318634236,0.43256669236468964,0.143188974448968,0.5657564367543721,0.43424356324562785,0.22138295351258042,0.20286137967376197,0.28117834926710755,0.1513883430975821,0.0631951339746842,0.0799938404742838,5000.38499999998,0.43256669236468964,0.42424433318634236,0.143188974448968
1,1,32,attraction,A,R,B,competitor,4880.0,0.72,0.68,0.7,4,14,3,1,2,0,False,False,True,0.3490099181884439,0.2931613831482128,0.3578286986633433,0.3180105686403126,0.6819894313596874,0.07562772346656173,0.2733821947218822,0.10448918683895984,0.18867219630925294,0.137893658334791,0.21993504032855232,3742.0139999999665,0.3490099181884439,0.2931613831482128,0.3578286986633433
1,1,33,compromise,B,L,B,target,8780.0,0.72,0.62,0.55,5,14,35,1,0,2,False,False,False,0.4396932353787714,0.3123584282361708,0.24794833638505775,0.3395340830300324,0.6604659169699676,0.15173567237614674,0.2879575630026247,0.06110252636492367,0.25125590187124713,0.126695884288962,0.12125245209609574,7348.304999999993,0.3123584282361708,0.4396932353787714,0.24794833638505775
1,1,34,compromise,B,R,B,target,7300.0,0.72,0.68,0.55,4,14,35,1,2,0,True,False,True,0.22826741498938438,0.4349345643669573,0.33679802064365827,0.5426342256391458,0.45736577436085424,0.15553091787682155,0.07273649711256283,0.18225358120041255,0.2526809831665448,0.20484972656191164,0.13194829408174663,6062.98099999968,0.4349345643669573,0.22826741498938438,0.33679802064365827
1,1,35,compromise,A,M,B,competitor,4230.0,0.78,0.68,0.88,4,15,3,0,1,2,False,True,False,0.2924970691676436,0.4097303634232122,0.2977725674091442,0.6292497069167644,0.37075029308323565,0.20720984759671746,0.08528722157092614,0.2391559202813599,0.17057444314185227,0.182883939038687,0.11488862837045721,3412.0,0.2924970691676436,0.4097303634232122,0.2977725674091442
1,1,36,compromise,A,R,B,competitor,9150.0,0.75,0.65,0.82,5,15,2,0,2,1,True,False,False,0.3586711231397681,0.4048049259021052,0.23652395095812662,0.5587471209994294,0.44125287900057064,0.25966710869500037,0.09900401444476775,0.1915456258578927,0.21325930004421254,0.10753438644653626,0.12898956451159035,7737.059999999648,0.3586711231397681,0.4048049259021052,0.23652395095812662
1,1,37,compromise,B,L,B,target,6030.0,0.72,0.62,0.55,5,14,35,2,0,1,False,True,True,0.3004461239218362,0.4376380389395796,0.26191583713858424,0.6301239251649289,0.36987607483507107,0.13885990182646976,0.16158622209536644,0.30565858269910606,0.1319794562404735,0.18560544063935308,0.07631039649923112,4796.2009999998845,0.4376380389395796,0.3004461239218362,0.26191583713858424
1,1,38,attraction,A,R,B,competitor,2960.0,0.78,0.62,0.76,4,15,3,1,2,0,False,False,False,0.30276841951071853,0.46872711293397074,0.22850446755531073,0.5425403657423267,0.4574596342576734,0.1450237180425553,0.15774470146816322,0.31864429696568974,0.15008281596828102,0.07887235073408161,0.14963211682122912,2218.7749999998487,0.30276841951071853,0.46872711293397074,0.22850446755531073
1,1,39,compromise,A,L,B,competitor,3780.0,0.78,0.68,0.88,5,15,2,1,0,2,True,True,True,0.3068334390003377,0.4302876809309252,0.2628788800687371,0.702242941769299,0.29775705823070103,0.22119476097855373,0.085638678021784,0.2850655886167379,0.14522209231418726,0.19598259217400732,0.06689628789472978,2974.7540000000154,0.3068334390003377,0.4302876809309252,0.2628788800687371
1,1,40,filler,,R,C,,3630.0,0.24,0.37,0.76,41,27,13,0,1,2,True,False,False,0.3423806009322591,0.32083002792976467,0.33678937113797625,0.6212842989058956,0.37871570109410435,0.22726704634408357,0.11511355458817547,0.18615506256259234,0.13467496536717236,0.2078621899992197,0.12892718113875654,3040.475999999675,,,
1,1,41,attraction,A,L,A,target,4980.0,0.72,0.62,0.7,5,15,4,0,1,2,True,True,False,0.3781511796970877,0.4076512989360304,0.21419752136688186,0.5481148694910108,0.45188513050898915,0.25602734035435376,0.12212383934273399,0.21395712010833318,0.1936941788276972,0.07813040902832391,0.13606711233855795,4159.71199999965,0.3781511796970877,0.4076512989360304,0.21419752136688186
1,1,42,attraction,A,M,B,competitor,8210.0,0.78,0.68,0.76,4,15,3,0,1,2,False,True,True,0.36700980557215324,0.3809439210425945,0.25204627338525226,0.5428227182028263,0.4571772817971736,0.2016088413718815,0.16540096420027176,0.2168109369767371,0.1641329840658574,0.1244029398542078,0.12764333353104446,7097.902999999991,0.36700980557215324,0.3809439210425945,0.25204627338525226
1,1,43,attraction,B,R,A,competitor,5490.0,0.78,0.65,0.63,5,15,14,2,0,1,False,True,True,0.28219500826017374,0.2474089318982828,0.4703960598415434,0.6383044342768015,0.36169556572319855,0.09591220069265724,0.18628280756751653,0.18005725318966126,0.06735167870862153,0.3623349803944829,0.1080610794470605,4691.790999999968,0.2474089318982828,0.28219500826017374,0.4703960598415434
1,1,44,filler,,R,C,,6160.0,0.32,0.6,0.78,31,16,12,1,0,2,True,True,False,0.2198385537930871,0.4247522883378362,0.35540915786907673,0.5372934929401688,0.4627065070598312,0.15610554186775175,0.06373301192533534,0.2702602404428777,0.15449204789495846,0.11092771062953936,0.24448144723953738,4958.183999999892,,,
1,1,45,compromise,B,R,B,target,3880.0,0.78,0.65,0.52,5,14,34,0,2,1,False,True,False,0.2726851204451414,0.28777296111754463,0.43954191843731394,0.5495727565116693,0.45042724348833074,0.14388648055877232,0.12879863988636908,0.17148618910585142,0.11628677201169324,0.2342000868470455,0.20534183159026845,2717.4199999998673,0.28777296111754463,0.2726851204451414,0.43954191843731394
1,1,46,attraction,A,L,A,target,7040.0,0.75,0.65,0.73,5,14,4,0,1,2,True,True,False,0.33986563875964004,0.23793930019523993,0.42219506104512006,0.612612653175581,0.387387346824419,0.21448859848209006,0.12537704027755,0.1501407374594418,0.08779856273579814,0.24798331723404918,0.17421174381107085,5774.5819999998785,0.33986563875964004,0.23793930019523993,0.42219506104512006
1,1,47,attraction,A,L,B,competitor,5050.0,0.72,0.65,0.7,4,15,3,2,0,1,False,False,True,0.27788755407860516,0.4992070038091266,0.22290544211226826,0.44213943177465753,0.5578605682253425,0.13242671432638972,0.14546083975221547,0.17570001074013122,0.32350699306899533,0.1340127067081366,0.08889273540413167,3836.0839999997406,0.27788755407860516,0.4992070038091266,0.22290544211226826
