,subject,block,trial,effect,target,key,choice,choice_tcd,rt,pA,pB,pC,mA,mB,mC,pos_A,pos_B,pos_C,pA_top,pB_top,pC_top
0,0,1,1,attraction,A,M,A,target,7220.0,0.78,0.62,0.76,11,15,10,1,0,2,True,False,False
1,0,1,2,attraction,B,M,B,target,7770.0,0.78,0.65,0.63,11,15,14,0,1,2,False,False,True
2,0,1,3,attraction,A,M,C,decoy,5870.0,0.72,0.62,0.7,12,15,11,2,0,1,False,True,True
3,0,1,4,attraction,B,L,C,decoy,9550.0,0.78,0.62,0.6,11,15,14,2,1,0,True,False,True
4,0,1,5,filler,,M,C,,3740.0,0.29,0.42,0.72,34,23,13,0,2,1,False,False,False
5,0,1,6,compromise,B,L,A,competitor,3650.0,0.72,0.68,0.58,12,14,18,0,2,1,False,False,False
6,0,1,7,compromise,B,L,B,target,7650.0,0.72,0.65,0.55,11,15,18,1,0,2,True,True,True
7,0,1,8,filler,,M,C,,3140.0,0.28,0.67,0.78,35,14,12,0,2,1,True,False,True
8,0,1,9,compromise,A,R,B,competitor,8060.000000000001,0.75,0.65,0.85,12,15,9,0,2,1,True,True,True
9,0,1,10,compromise,B,L,C,decoy,6160.0,0.72,0.62,0.55,12,14,18,2,1,0,True,True,True
10,0,1,11,compromise,A,L,A,target,6850.0,0.78,0.65,0.82,12,14,9,0,2,1,True,True,False
11,0,1,12,compromise,A,L,A,target,7440.0,0.72,0.68,0.82,12,15,8,0,1,2,True,False,True
12,0,1,13,compromise,B,L,C,decoy,11160.0,0.72,0.62,0.58,11,14,18,2,1,0,True,False,False
13,0,1,14,compromise,A,R,B,competitor,8970.0,0.78,0.68,0.88,11,15,9,0,2,1,True,False,False
14,0,1,15,compromise,A,M,A,target,8370.0,0.75,0.68,0.88,11,15,9,1,2,0,False,True,True
15,0,1,16,compromise,A,R,A,target,10860.0,0.75,0.65,0.82,12,15,8,2,1,0,True,True,True
16,0,1,17,attraction,B,M,C,decoy,6430.0,0.72,0.62,0.6,12,15,14,0,2,1,True,True,False
17,0,1,18,attraction,A,L,B,competitor,5280.0,0.78,0.68,0.76,11,15,10,2,0,1,False,False,False
18,0,1,19,compromise,B,L,B,target,6740.0,0.75,0.68,0.55,11,14,17,2,0,1,False,False,False
19,0,1,20,attraction,B,R,A,competitor,5290.0,0.75,0.62,0.6,11,15,14,2,0,1,True,True,True
20,0,1,21,compromise,B,M,C,decoy,11530.0,0.78,0.62,0.55,12,14,18,2,0,1,False,False,True
21,0,1,22,attraction,A,M,B,competitor,12580.0,0.72,0.65,0.7,12,15,11,2,1,0,False,True,True
22,0,1,23,attraction,A,M,A,target,9910.0,0.75,0.68,0.73,11,14,10,1,0,2,False,False,False
23,0,1,24,compromise,A,M,A,target,6950.0,0.75,0.62,0.88,11,15,9,1,0,2,True,False,True
24,0,1,25,compromise,B,M,A,competitor,7870.0,0.72,0.62,0.55,12,14,18,1,0,2,False,True,True
25,0,1,26,attraction,A,M,A,target,6000.0,0.72,0.65,0.7,11,15,10,1,0,2,False,False,True
26,0,1,27,filler,,L,C,,4300.0,0.24,0.37,0.76,41,27,13,1,2,0,True,True,False
27,0,1,28,attraction,B,L,A,competitor,7230.0,0.78,0.65,0.63,12,15,14,0,1,2,True,False,False
28,0,1,29,compromise,A,L,A,target,5150.0,0.78,0.68,0.85,11,15,8,0,2,1,False,True,True
29,0,1,30,attraction,B,L,A,competitor,5670.0,0.72,0.62,0.6,12,15,14,0,1,2,True,False,True
30,0,1,31,attraction,B,L,A,competitor,6700.0,0.78,0.62,0.6,12,15,14,0,1,2,True,True,True
31,0,1,32,compromise,B,L,B,target,7730.0,0.72,0.68,0.52,12,15,18,1,0,2,False,True,True
32,0,1,33,attraction,A,M,A,target,10290.0,0.78,0.62,0.76,12,14,11,1,2,0,False,False,True
33,0,1,34,compromise,B,M,A,competitor,11810.0,0.75,0.62,0.58,12,14,18,1,0,2,False,False,False
34,0,1,35,compromise,A,M,A,target,5640.0,0.78,0.68,0.82,12,15,9,1,2,0,True,False,True
35,0,1,36,compromise,B,M,B,target,13330.0,0.75,0.62,0.58,11,15,17,0,1,2,False,True,False
36,0,1,37,attraction,A,L,A,target,7930.0,0.75,0.65,0.73,11,15,10,0,2,1,True,False,False
37,0,1,38,compromise,A,R,A,target,8350.0,0.72,0.68,0.82,12,15,8,2,0,1,False,True,True
38,0,1,39,attraction,A,M,A,target,7200.0,0.75,0.65,0.73,12,14,11,1,2,0,False,False,False
39,0,1,40,attraction,B,L,B,target,12650.0,0.75,0.68,0.66,11,14,13,1,0,2,True,True,True
40,0,1,41,filler,,L,A,,10560.0,0.19,0.56,0.8,52,17,12,0,1,2,True,False,False
41,0,1,42,attraction,A,M,B,competitor,12210.0,0.75,0.65,0.73,12,14,11,0,1,2,True,True,False
42,0,1,43,attraction,B,L,A,competitor,15070.0,0.72,0.68,0.66,12,14,13,0,1,2,False,True,True
43,0,1,44,attraction,A,L,B,competitor,8870.0,0.72,0.68,0.7,11,14,10,2,0,1,False,True,True
44,0,1,45,compromise,A,M,A,target,9430.0,0.78,0.65,0.82,12,14,8,1,0,2,True,True,False
45,0,1,46,attraction,A,L,A,target,9610.0,0.72,0.65,0.7,11,14,10,0,2,1,False,True,False
46,0,1,47,compromise,A,L,A,target,13740.0,0.78,0.62,0.85,11,15,8,0,1,2,True,True,False
47,0,1,48,compromise,B,L,B,target,5250.0,0.72,0.65,0.52,12,15,17,2,0,1,False,False,True
48,0,1,49,compromise,B,R,A,competitor,11060.0,0.72,0.68,0.55,11,14,18,2,1,0,True,False,False
49,0,1,50,compromise,A,M,A,target,4770.0,0.78,0.62,0.85,12,14,8,1,0,2,True,False,False
50,0,1,51,attraction,B,M,A,competitor,5400.0,0.72,0.65,0.63,12,14,13,1,2,0,True,True,False
51,0,1,52,filler,,M,B,,12390.0,0.27,0.47,0.86,37,21,11,0,1,2,False,True,False
52,0,1,53,attraction,B,M,B,target,7890.0,0.72,0.62,0.6,12,14,13,0,1,2,False,True,True
53,0,1,54,attraction,B,R,A,competitor,9690.0,0.72,0.62,0.6,11,15,14,2,1,0,False,False,False
54,0,1,55,filler,,L,B,,14420.0,0.27,0.61,0.89,37,16,11,1,0,2,False,False,True
55,0,1,56,compromise,B,M,A,competitor,5180.0,0.78,0.65,0.52,12,14,17,1,0,2,True,False,False
56,0,1,57,filler,,M,B,,20820.0,0.16,0.46,0.87,62,21,11,0,1,2,False,False,False
57,0,1,58,filler,,L,B,,10050.0,0.31,0.38,0.85,32,26,11,1,0,2,False,True,False
58,0,1,59,attraction,A,L,A,target,9930.0,0.72,0.65,0.7,11,15,10,0,1,2,False,False,False
59,0,1,60,filler,,M,A,,12640.0,0.32,0.48,0.85,31,20,11,1,2,0,True,False,False
60,0,1,61,attraction,B,L,A,competitor,11020.0,0.78,0.62,0.6,11,14,13,0,1,2,True,False,True
61,0,1,62,attraction,A,L,A,target,8790.0,0.75,0.65,0.73,12,15,11,0,2,1,True,True,True
62,0,1,63,compromise,A,M,A,target,6660.0,0.72,0.65,0.82,12,15,8,1,0,2,False,True,False
63,0,1,64,compromise,A,R,A,target,9830.0,0.78,0.68,0.88,12,15,8,2,0,1,False,True,True
64,0,1,65,attraction,B,M,B,target,11890.0,0.78,0.68,0.66,11,14,13,2,1,0,True,False,False
65,0,1,66,filler,,R,A,,9380.0,0.32,0.6,0.78,31,16,12,2,0,1,True,True,True
66,0,1,67,filler,,L,C,,17390.0,0.19,0.59,0.81,52,16,12,2,1,0,False,False,False
67,0,1,68,compromise,B,R,C,decoy,12550.0,0.72,0.65,0.58,11,15,17,0,1,2,False,False,False
68,0,1,69,attraction,B,M,A,competitor,8109.999999999999,0.78,0.65,0.63,12,15,14,1,2,0,True,False,True
69,0,1,70,compromise,B,M,A,competitor,13330.0,0.75,0.65,0.55,12,14,17,1,0,2,False,True,True
70,0,1,71,attraction,A,M,A,target,13040.0,0.78,0.68,0.76,12,15,11,1,0,2,True,True,True
71,0,1,72,compromise,A,L,A,target,8570.0,0.75,0.62,0.88,12,15,8,0,2,1,False,False,True
72,0,1,73,attraction,A,L,A,target,10050.0,0.75,0.65,0.73,12,15,11,0,1,2,True,True,True
73,0,1,74,compromise,B,L,B,target,7110.0,0.72,0.68,0.58,11,15,18,2,0,1,True,True,True
74,0,1,75,attraction,B,M,B,target,11020.0,0.75,0.65,0.63,11,14,13,2,1,0,False,False,True
75,0,2,76,filler,,L,A,,8400.0,0.28,0.67,0.78,35,14,12,0,1,2,True,True,True
76,0,2,77,attraction,B,M,B,target,8840.0,0.72,0.62,0.6,9,14,13,2,1,0,True,True,True
77,0,2,78,attraction,B,M,B,target,8840.0,0.78,0.68,0.66,8,14,13,2,1,0,False,True,True
78,0,2,79,compromise,A,R,B,competitor,7500.0,0.72,0.68,0.82,9,15,4,1,2,0,True,False,True
79,0,2,80,compromise,B,M,C,decoy,18000.0,0.72,0.62,0.55,9,14,20,2,0,1,True,False,True
80,0,2,81,compromise,B,R,C,decoy,5970.0,0.72,0.62,0.58,8,14,20,0,1,2,True,False,True
81,0,2,82,attraction,B,R,B,target,12600.0,0.72,0.62,0.6,8,15,14,0,2,1,True,True,True
82,0,2,83,filler,,L,B,,15300.0,0.24,0.37,0.76,41,27,13,1,0,2,True,False,True
83,0,2,84,compromise,B,L,B,target,11510.0,0.72,0.65,0.52,9,15,19,1,0,2,False,True,False
84,0,2,85,attraction,A,R,A,target,13570.0,0.75,0.68,0.73,8,14,7,2,1,0,False,False,False
85,0,2,86,filler,,L,C,,12660.0,0.32,0.48,0.85,31,20,11,1,2,0,True,True,True
86,0,2,87,attraction,A,M,B,competitor,13880.0,0.72,0.65,0.7,8,14,7,2,1,0,False,False,False
87,0,2,88,attraction,A,L,B,competitor,8930.0,0.72,0.65,0.7,8,15,7,1,0,2,False,False,True
88,0,2,89,attraction,B,M,B,target,6730.0,0.75,0.62,0.6,8,15,14,2,1,0,False,True,False
89,0,2,90,filler,,R,A,,7560.0,0.19,0.59,0.81,52,16,12,2,0,1,False,True,True
90,0,2,91,attraction,B,L,B,target,8150.0,0.78,0.65,0.63,9,15,14,2,0,1,False,False,False
91,0,2,92,filler,,L,B,,12620.0,0.32,0.6,0.78,31,16,12,1,0,2,True,True,False
92,0,2,93,filler,,R,A,,15840.0,0.27,0.61,0.89,37,16,11,2,0,1,False,True,True
93,0,2,94,compromise,B,M,C,decoy,9330.0,0.75,0.68,0.55,8,14,19,0,2,1,False,False,False
94,0,2,95,attraction,A,M,B,competitor,8230.0,0.75,0.65,0.73,8,15,7,2,1,0,True,False,False
95,0,2,96,compromise,B,L,C,decoy,15180.0,0.75,0.62,0.58,9,14,20,1,2,0,True,True,False
96,0,2,97,compromise,A,L,A,target,11310.0,0.78,0.68,0.82,9,15,5,0,2,1,False,False,True
97,0,2,98,compromise,B,M,B,target,13290.0,0.72,0.68,0.58,8,15,20,2,1,0,False,True,False
98,0,2,99,compromise,A,R,A,target,13510.0,0.78,0.62,0.85,9,14,4,2,0,1,True,False,True
99,0,2,100,compromise,B,R,B,target,10150.0,0.72,0.68,0.55,8,14,20,1,2,0,False,True,True
100,0,2,101,attraction,A,R,A,target,9020.0,0.75,0.65,0.73,9,15,8,2,1,0,False,True,False
101,0,2,102,attraction,B,M,B,target,11790.0,0.72,0.65,0.63,9,14,13,2,1,0,True,True,True
102,0,2,103,attraction,A,R,A,target,12060.0,0.75,0.65,0.73,9,14,8,2,0,1,False,False,True
103,0,2,104,compromise,B,R,B,target,16020.0,0.78,0.62,0.55,9,14,20,1,2,0,False,False,True
104,0,2,105,attraction,B,M,B,target,10810.0,0.78,0.65,0.63,9,15,14,0,1,2,False,True,True
105,0,2,106,compromise,A,M,A,target,10230.0,0.75,0.65,0.82,9,15,4,1,2,0,False,True,False
106,0,2,107,compromise,A,R,B,competitor,6760.0,0.75,0.68,0.88,8,15,5,0,2,1,False,False,False
107,0,2,108,compromise,A,L,B,competitor,10250.0,0.72,0.65,0.82,9,15,4,2,0,1,False,True,False
108,0,2,109,compromise,B,R,C,decoy,15440.0,0.72,0.62,0.55,9,14,20,0,1,2,False,False,False
109,0,2,110,attraction,B,L,B,target,8820.0,0.75,0.68,0.66,8,14,13,1,0,2,True,False,False
110,0,2,111,compromise,B,R,B,target,13770.0,0.72,0.65,0.55,8,15,20,0,2,1,True,True,True
111,0,2,112,filler,,M,B,,15200.0,0.31,0.38,0.85,32,26,11,0,1,2,False,True,False
112,0,2,113,attraction,B,M,B,target,8660.0,0.72,0.62,0.6,9,15,14,2,1,0,False,False,True
113,0,2,114,attraction,A,L,A,target,10340.0,0.75,0.65,0.73,9,15,8,0,1,2,True,False,True
114,0,2,115,attraction,A,L,A,target,8050.000000000001,0.72,0.65,0.7,8,15,7,0,2,1,False,True,True
115,0,2,116,attraction,B,R,B,target,10990.0,0.75,0.65,0.63,8,14,13,0,2,1,False,True,True
116,0,2,117,compromise,B,M,C,decoy,14710.0,0.72,0.68,0.58,9,14,20,2,0,1,True,True,True
117,0,2,118,attraction,B,R,B,target,7510.0,0.72,0.68,0.66,9,14,13,0,2,1,True,True,True
118,0,2,119,compromise,B,L,B,target,9180.0,0.78,0.65,0.52,9,14,19,1,0,2,True,False,False
119,0,2,120,filler,,M,B,,11040.0,0.19,0.56,0.8,52,17,12,0,1,2,False,False,False
120,0,2,121,compromise,B,L,B,target,11420.0,0.72,0.65,0.58,8,15,19,2,0,1,False,False,False
121,0,2,122,compromise,A,M,B,competitor,11350.0,0.78,0.68,0.88,9,15,4,0,1,2,True,False,False
122,0,2,123,compromise,A,M,A,target,6160.0,0.78,0.68,0.88,8,15,5,1,0,2,False,True,True
123,0,2,124,attraction,A,L,A,target,10570.0,0.72,0.62,0.7,9,15,8,0,1,2,True,False,False
124,0,2,125,attraction,B,R,B,target,7440.0,0.78,0.65,0.63,8,15,14,1,2,0,True,True,False
125,0,2,126,filler,,M,B,,22470.0,0.16,0.46,0.87,62,21,11,2,1,0,True,True,False
126,0,2,127,compromise,B,R,C,decoy,9900.0,0.75,0.62,0.58,8,15,19,1,0,2,True,False,False
127,0,2,128,compromise,A,R,B,competitor,7070.0,0.78,0.68,0.85,8,15,4,0,2,1,False,False,True
128,0,2,129,attraction,A,M,A,target,9470.0,0.75,0.65,0.73,9,14,8,1,0,2,True,True,False
129,0,2,130,filler,,R,B,,10040.0,0.29,0.42,0.72,34,23,13,0,2,1,False,False,False
130,0,2,131,attraction,B,M,B,target,9550.0,0.78,0.62,0.6,9,15,14,0,1,2,True,True,False
131,0,2,132,compromise,A,M,A,target,3550.0,0.78,0.65,0.82,9,14,5,1,2,0,True,True,True
132,0,2,133,attraction,A,M,A,target,9600.0,0.78,0.62,0.76,8,15,7,1,0,2,False,True,True
133,0,2,134,attraction,B,M,B,target,6000.0,0.78,0.62,0.6,8,15,14,2,1,0,False,False,True
134,0,2,135,filler,,M,B,,12890.0,0.27,0.47,0.86,37,21,11,0,1,2,True,True,True
135,0,2,136,compromise,A,M,B,competitor,8950.0,0.78,0.62,0.85,8,15,4,0,1,2,False,False,True
136,0,2,137,compromise,A,R,A,target,10440.0,0.78,0.65,0.82,9,14,4,2,1,0,False,False,False
137,0,2,138,compromise,A,M,A,target,7530.0,0.75,0.62,0.88,9,15,4,1,2,0,True,False,False
138,0,2,139,attraction,A,R,A,target,12720.0,0.78,0.68,0.76,9,15,8,2,0,1,True,True,True
139,0,2,140,attraction,B,M,B,target,8189.999999999999,0.72,0.62,0.6,9,15,14,2,1,0,False,True,True
140,0,2,141,compromise,B,M,B,target,13050.0,0.75,0.65,0.55,9,14,19,0,1,2,True,False,False
141,0,2,142,attraction,B,M,B,target,5790.0,0.78,0.62,0.6,8,14,13,0,1,2,False,False,False
142,0,2,143,compromise,B,M,B,target,5810.0,0.72,0.68,0.52,9,15,20,0,1,2,False,True,False
143,0,2,144,attraction,A,R,A,target,9410.0,0.78,0.62,0.76,9,14,8,2,0,1,False,False,False
144,0,2,145,compromise,A,M,A,target,10640.0,0.75,0.65,0.85,9,15,5,1,2,0,True,False,True
145,0,2,146,attraction,A,M,B,competitor,14610.0,0.72,0.68,0.7,8,14,7,2,1,0,False,True,False
146,0,2,147,compromise,A,M,B,competitor,12160.0,0.75,0.62,0.88,8,15,5,2,1,0,False,True,True
147,0,2,148,attraction,A,R,A,target,8420.0,0.78,0.68,0.76,8,15,7,2,0,1,False,False,True
148,0,2,149,attraction,A,M,A,target,9170.0,0.72,0.65,0.7,9,15,8,1,0,2,False,False,True
149,0,2,150,compromise,A,M,B,competitor,11000.0,0.72,0.68,0.82,9,15,4,2,1,0,False,True,True
150,0,3,151,attraction,A,R,A,target,12300.0,0.78,0.68,0.76,10,15,9,2,1,0,True,True,True
151,0,3,152,compromise,A,M,A,target,9520.0,0.78,0.68,0.82,10,15,8,1,2,0,True,True,True
152,0,3,153,compromise,B,R,C,decoy,13030.0,0.72,0.68,0.55,9,14,25,1,0,2,True,True,True
153,0,3,154,compromise,A,M,A,target,6510.0,0.78,0.68,0.88,9,15,8,1,2,0,True,True,True
154,0,3,155,compromise,B,M,B,target,19090.0,0.72,0.68,0.52,10,15,25,0,1,2,False,True,True
155,0,3,156,compromise,B,M,C,decoy,12770.0,0.72,0.65,0.52,10,15,24,2,0,1,True,True,True
156,0,3,157,compromise,B,M,C,decoy,8640.0,0.75,0.65,0.55,10,14,24,0,2,1,False,True,False
157,0,3,158,attraction,B,L,B,target,14480.0,0.72,0.65,0.63,10,14,13,2,0,1,False,False,True
158,0,3,159,attraction,A,L,A,target,10630.0,0.78,0.62,0.76,10,14,9,0,1,2,False,True,True
159,0,3,160,attraction,A,R,B,competitor,6100.0,0.72,0.68,0.7,9,14,8,0,2,1,False,False,True
160,0,3,161,attraction,A,R,A,target,12220.0,0.72,0.62,0.7,10,15,9,2,0,1,True,False,False
161,0,3,162,compromise,A,M,A,target,8420.0,0.72,0.68,0.82,10,15,7,1,2,0,False,True,True
162,0,3,163,filler,,M,B,,21260.0,0.16,0.46,0.87,62,21,11,2,1,0,False,True,True
163,0,3,164,compromise,B,L,C,decoy,9470.0,0.75,0.62,0.58,9,15,24,2,1,0,True,True,True
164,0,3,165,attraction,A,L,A,target,11120.0,0.75,0.65,0.73,10,15,9,0,1,2,False,False,True
165,0,3,166,compromise,B,R,C,decoy,9950.0,0.78,0.62,0.55,10,14,25,0,1,2,False,False,False
166,0,3,167,attraction,B,R,B,target,8180.0,0.72,0.62,0.6,10,15,14,1,2,0,True,True,True
167,0,3,168,compromise,B,M,C,decoy,8010.0,0.72,0.65,0.58,9,15,24,0,2,1,False,True,True
168,0,3,169,compromise,A,M,A,target,17820.0,0.75,0.65,0.85,10,15,8,1,0,2,True,False,True
169,0,3,170,filler,,L,A,,14540.0,0.29,0.42,0.72,34,23,13,0,1,2,True,True,False
170,0,3,171,attraction,A,R,A,target,9480.0,0.75,0.65,0.73,10,15,9,2,0,1,False,False,True
171,0,3,172,filler,,M,A,,29080.0,0.32,0.6,0.78,31,16,12,1,0,2,False,True,False
172,0,3,173,filler,,M,B,,33480.0,0.31,0.38,0.85,32,26,11,0,1,2,False,True,True
173,0,3,174,compromise,A,L,A,target,11310.0,0.78,0.68,0.85,9,15,7,0,2,1,True,True,True
174,0,3,175,compromise,A,M,A,target,10290.0,0.75,0.65,0.82,10,15,7,1,2,0,True,True,False
175,0,3,176,filler,,R,B,,22130.0,0.24,0.37,0.76,41,27,13,1,2,0,True,False,False
176,0,3,177,filler,,M,B,,6490.0,0.32,0.48,0.85,31,20,11,2,1,0,True,False,True
177,0,3,178,compromise,A,R,A,target,11980.0,0.78,0.65,0.82,10,14,7,2,1,0,True,True,True
178,0,3,179,compromise,B,M,C,decoy,17380.0,0.78,0.65,0.52,10,14,24,2,0,1,False,False,True
179,0,3,180,attraction,B,L,B,target,7210.0,0.78,0.68,0.66,9,14,13,1,0,2,True,True,False
180,0,3,181,filler,,R,B,,15220.0,0.19,0.59,0.81,52,16,12,0,2,1,False,False,False
181,0,3,182,attraction,B,R,B,target,19320.0,0.78,0.62,0.6,9,15,14,1,2,0,True,True,False
182,0,3,183,compromise,A,L,A,target,8850.0,0.78,0.65,0.82,10,14,8,0,1,2,False,True,True
183,0,3,184,compromise,B,M,C,decoy,8109.999999999999,0.72,0.62,0.55,10,14,25,2,0,1,False,True,True
184,0,3,185,attraction,A,R,A,target,16980.0,0.75,0.65,0.73,9,15,8,2,0,1,False,False,True
185,0,3,186,attraction,B,R,B,target,8740.0,0.72,0.68,0.66,10,14,13,0,2,1,False,True,False
186,0,3,187,attraction,B,M,A,competitor,15140.0,0.78,0.62,0.6,10,15,14,1,0,2,True,False,True
187,0,3,188,attraction,A,L,A,target,11490.0,0.72,0.65,0.7,10,15,9,0,2,1,True,False,True
188,0,3,189,attraction,A,M,A,target,12110.0,0.75,0.68,0.73,9,14,8,1,0,2,False,True,False
189,0,3,190,attraction,B,R,B,target,8700.0,0.78,0.65,0.63,10,15,14,1,2,0,True,False,False
190,0,3,191,attraction,B,M,B,target,7480.0,0.72,0.62,0.6,9,15,14,2,1,0,True,False,False
191,0,3,192,attraction,A,M,A,target,11400.0,0.78,0.62,0.76,9,15,8,1,0,2,True,False,False
192,0,3,193,compromise,B,L,B,target,13470.0,0.72,0.68,0.58,9,15,25,2,0,1,False,True,False
193,0,3,194,filler,,M,B,,14550.0,0.27,0.47,0.86,37,21,11,0,1,2,True,False,False
194,0,3,195,attraction,B,R,B,target,10030.0,0.72,0.62,0.6,10,15,14,1,2,0,False,False,False
195,0,3,196,attraction,B,M,B,target,6680.0,0.78,0.65,0.63,9,15,14,2,1,0,True,True,False
196,0,3,197,compromise,A,R,B,competitor,12670.0,0.72,0.65,0.82,10,15,7,0,2,1,False,False,False
197,0,3,198,compromise,B,L,B,target,8350.0,0.75,0.68,0.55,9,14,24,2,0,1,False,True,True
198,0,3,199,compromise,B,M,C,decoy,11080.0,0.72,0.65,0.55,9,15,25,0,2,1,True,False,False
199,0,3,200,attraction,B,R,B,target,8740.0,0.78,0.62,0.6,9,14,13,0,2,1,True,True,True
200,0,3,201,attraction,B,R,B,target,11660.0,0.72,0.62,0.6,10,14,13,1,2,0,True,True,True
201,0,3,202,compromise,B,L,C,decoy,12400.0,0.75,0.62,0.58,10,14,25,2,1,0,True,False,True
202,0,3,203,compromise,B,L,C,decoy,6220.0,0.72,0.68,0.58,10,14,25,2,1,0,True,False,False
203,0,3,204,filler,,M,C,,15940.0,0.28,0.67,0.78,35,14,12,2,0,1,False,True,False
204,0,3,205,compromise,A,M,A,target,12810.0,0.78,0.62,0.85,10,14,7,1,0,2,False,False,False
205,0,3,206,compromise,A,M,A,target,6790.0,0.75,0.62,0.88,9,15,8,1,2,0,True,True,True
206,0,3,207,compromise,A,R,A,target,6480.0,0.78,0.68,0.88,10,15,7,2,1,0,True,True,True
207,0,3,208,attraction,B,L,B,target,20350.0,0.75,0.68,0.66,9,14,13,1,0,2,False,True,True
208,0,3,209,attraction,A,M,A,target,7050.0,0.72,0.65,0.7,9,15,8,1,2,0,False,True,True
209,0,3,210,compromise,A,L,A,target,11710.0,0.75,0.62,0.88,10,15,7,0,1,2,True,True,True
210,0,3,211,compromise,A,R,A,target,18050.0,0.72,0.68,0.82,10,15,7,2,0,1,False,True,False
211,0,3,212,compromise,B,M,C,decoy,17690.0,0.72,0.62,0.58,9,14,25,0,2,1,True,True,False
212,0,3,213,filler,,R,B,,9770.0,0.27,0.61,0.89,37,16,11,0,2,1,True,False,False
213,0,3,214,compromise,A,R,B,competitor,8730.0,0.75,0.68,0.88,9,15,8,1,2,0,False,True,True
214,0,3,215,attraction,B,R,B,target,8000.0,0.75,0.62,0.6,9,15,14,0,2,1,True,True,True
215,0,3,216,attraction,A,M,A,target,9350.0,0.75,0.65,0.73,10,14,9,1,2,0,True,False,False
216,0,3,217,compromise,B,M,B,target,11340.0,0.72,0.62,0.55,10,14,25,2,1,0,False,False,False
217,0,3,218,attraction,A,M,A,target,8560.0,0.72,0.65,0.7,9,15,8,1,2,0,True,True,True
218,0,3,219,filler,,R,B,,23580.0,0.19,0.56,0.8,52,17,12,1,2,0,True,False,False
219,0,3,220,attraction,A,L,A,target,9890.0,0.75,0.65,0.73,10,14,9,0,2,1,False,True,True
220,0,3,221,attraction,A,L,A,target,10530.0,0.72,0.65,0.7,9,14,8,0,2,1,False,False,False
221,0,3,222,attraction,B,R,C,decoy,13030.0,0.75,0.65,0.63,9,14,13,1,0,2,True,True,False
222,0,3,223,attraction,B,L,B,target,13530.0,0.78,0.65,0.63,10,15,14,1,0,2,True,True,True
223,0,3,224,compromise,A,M,A,target,9070.0,0.78,0.62,0.85,9,15,7,1,0,2,True,True,True
224,0,3,225,attraction,A,R,A,target,6100.0,0.78,0.68,0.76,9,15,8,2,0,1,False,False,False
0,1,1,1,attraction,A,L,A,target,5220.0,0.72,0.65,0.7,4,15,3,0,1,2,False,False,True
1,1,1,2,filler,,M,C,,3270.0,0.16,0.46,0.87,62,21,11,2,0,1,False,True,True
2,1,1,3,attraction,B,R,A,competitor,5780.0,0.75,0.68,0.66,4,14,13,2,1,0,True,False,True
3,1,1,4,compromise,B,M,C,decoy,7540.0,0.72,0.62,0.58,4,14,35,0,2,1,False,False,False
4,1,1,5,attraction,B,R,B,target,4810.0,0.72,0.62,0.6,5,15,14,0,2,1,False,False,False
5,1,1,6,attraction,B,M,A,competitor,3830.0,0.78,0.62,0.6,4,15,14,1,0,2,True,True,True
6,1,1,7,compromise,B,M,C,decoy,9030.0,0.75,0.65,0.55,5,14,34,0,2,1,True,False,True
7,1,1,8,compromise,B,R,B,target,6750.0,0.72,0.68,0.52,5,15,35,0,2,1,True,True,True
8,1,1,9,attraction,B,M,B,target,6390.0,0.78,0.65,0.63,5,15,14,2,1,0,True,True,True
9,1,1,10,compromise,A,R,B,competitor,7390.0,0.75,0.62,0.88,4,15,3,0,2,1,True,True,False
10,1,1,11,compromise,A,M,B,competitor,5510.0,0.75,0.65,0.85,5,15,3,0,1,2,True,False,True
11,1,1,12,compromise,A,M,B,competitor,3400.0,0.78,0.62,0.85,4,15,2,2,1,0,True,False,False
12,1,1,13,filler,,M,C,,5690.0,0.32,0.48,0.85,31,20,11,0,2,1,True,False,False
13,1,1,14,compromise,A,R,B,competitor,4070.0000000000005,0.78,0.68,0.85,4,15,2,1,2,0,False,True,True
14,1,1,15,compromise,B,M,B,target,3980.0,0.75,0.68,0.55,4,14,34,2,1,0,True,True,True
15,1,1,16,compromise,A,R,B,competitor,7220.0,0.72,0.68,0.82,5,15,2,0,2,1,True,True,False
16,1,1,17,compromise,A,L,B,competitor,3940.0,0.72,0.68,0.82,5,15,2,2,0,1,False,False,False
17,1,1,18,compromise,A,L,B,competitor,3870.0,0.78,0.65,0.82,5,14,2,2,0,1,False,False,False
18,1,1,19,attraction,A,L,B,competitor,4710.0,0.72,0.65,0.7,4,14,3,2,0,1,True,True,True
19,1,1,20,attraction,A,L,B,competitor,5560.0,0.75,0.65,0.73,5,15,4,2,0,1,False,False,True
20,1,1,21,compromise,B,R,A,competitor,9910.0,0.75,0.62,0.58,5,14,35,2,1,0,False,True,True
21,1,1,22,attraction,B,L,B,target,4250.0,0.75,0.65,0.63,4,14,13,1,0,2,False,False,False
22,1,1,23,compromise,B,L,B,target,5850.0,0.72,0.68,0.58,4,15,35,1,0,2,True,False,True
23,1,1,24,compromise,B,L,B,target,8480.0,0.72,0.65,0.55,4,15,35,1,0,2,False,True,True
24,1,1,25,compromise,B,L,B,target,5420.0,0.72,0.65,0.52,5,15,34,1,0,2,False,False,True
25,1,1,26,compromise,A,R,B,competitor,8640.0,0.75,0.62,0.88,5,15,2,1,2,0,True,True,False
26,1,1,27,compromise,A,M,B,competitor,9810.0,0.72,0.65,0.82,5,15,2,0,1,2,True,False,False
27,1,1,28,compromise,B,R,B,target,8880.0,0.78,0.62,0.55,5,14,35,0,2,1,False,True,True
28,1,1,29,filler,,R,C,,3770.0,0.27,0.47,0.86,37,21,11,0,1,2,True,False,True
29,1,1,30,attraction,B,M,B,target,8960.0,0.78,0.65,0.63,4,15,14,0,1,2,True,True,True
30,1,1,31,attraction,B,L,B,target,6380.0,0.72,0.68,0.66,5,14,13,1,0,2,False,True,True
31,1,1,32,attraction,A,R,B,competitor,4880.0,0.72,0.68,0.7,4,14,3,1,2,0,False,False,True
32,1,1,33,compromise,B,L,B,target,8780.0,0.72,0.62,0.55,5,14,35,1,0,2,False,False,False
33,1,1,34,compromise,B,R,B,target,7300.0,0.72,0.68,0.55,4,14,35,1,2,0,True,False,True
34,1,1,35,compromise,A,M,B,competitor,4230.0,0.78,0.68,0.88,4,15,3,0,1,2,False,True,False
35,1,1,36,compromise,A,R,B,competitor,9150.0,0.75,0.65,0.82,5,15,2,0,2,1,True,False,False
36,1,1,37,compromise,B,L,B,target,6030.0,0.72,0.62,0.55,5,14,35,2,0,1,False,True,True
37,1,1,38,attraction,A,R,B,competitor,2960.0,0.78,0.62,0.76,4,15,3,1,2,0,False,False,False
38,1,1,39,compromise,A,L,B,competitor,3780.0,0.78,0.68,0.88,5,15,2,1,0,2,True,True,True
39,1,1,40,filler,,R,C,,3630.0,0.24,0.37,0.76,41,27,13,0,1,2,True,False,False
40,1,1,41,attraction,A,L,A,target,4980.0,0.72,0.62,0.7,5,15,4,0,1,2,True,True,False
41,1,1,42,attraction,A,M,B,competitor,8210.0,0.78,0.68,0.76,4,15,3,0,1,2,False,True,True
42,1,1,43,attraction,B,R,A,competitor,5490.0,0.78,0.65,0.63,5,15,14,2,0,1,False,True,True
43,1,1,44,filler,,R,C,,6160.0,0.32,0.6,0.78,31,16,12,1,0,2,True,True,False
44,1,1,45,compromise,B,R,B,target,3880.0,0.78,0.65,0.52,5,14,34,0,2,1,False,True,False
45,1,1,46,attraction,A,L,A,target,7040.0,0.75,0.65,0.73,5,14,4,0,1,2,True,True,False
46,1,1,47,attraction,A,L,B,competitor,5050.0,0.72,0.65,0.7,4,15,3,2,0,1,False,False,True
47,1,1,48,attraction,A,M,B,competitor,7860.0,0.72,0.65,0.7,5,15,4,2,1,0,True,False,False
48,1,1,49,compromise,B,R,C,decoy,11290.0,0.72,0.65,0.58,4,15,34,1,0,2,True,False,False
49,1,1,50,compromise,B,L,C,decoy,7600.0,0.75,0.62,0.58,4,15,34,1,2,0,True,True,False
50,1,1,51,attraction,A,M,B,competitor,2620.0,0.75,0.65,0.73,4,15,3,0,1,2,False,True,False
51,1,1,52,attraction,B,M,B,target,5100.0,0.75,0.62,0.6,4,15,14,0,1,2,False,True,True
52,1,1,53,attraction,A,M,B,competitor,6260.0,0.75,0.65,0.73,5,15,4,2,1,0,False,False,False
53,1,1,54,attraction,B,L,B,target,7000.0,0.78,0.68,0.66,4,14,13,1,0,2,False,False,True
54,1,1,55,filler,,R,C,,3670.0,0.19,0.56,0.8,52,17,12,1,0,2,True,False,False
55,1,1,56,compromise,B,R,C,decoy,5100.0,0.72,0.68,0.58,5,14,35,0,1,2,False,False,False
56,1,1,57,filler,,R,C,,6680.0,0.28,0.67,0.78,35,14,12,1,0,2,False,True,False
57,1,1,58,attraction,B,M,B,target,4550.0,0.78,0.62,0.6,4,14,13,0,1,2,False,False,False
58,1,1,59,attraction,A,M,A,target,5870.0,0.75,0.65,0.73,5,14,4,1,2,0,True,False,False
59,1,1,60,filler,,R,C,,6710.0,0.19,0.59,0.81,52,16,12,0,1,2,True,False,True
60,1,1,61,attraction,B,R,B,target,15080.0,0.72,0.62,0.6,4,15,14,0,2,1,True,True,True
61,1,1,62,attraction,B,L,B,target,4750.0,0.78,0.62,0.6,5,15,14,1,0,2,False,True,False
62,1,1,63,attraction,A,L,B,competitor,5080.0,0.75,0.68,0.73,4,14,3,2,0,1,False,True,True
63,1,1,64,compromise,A,M,B,competitor,3540.0,0.78,0.62,0.85,5,14,2,2,1,0,True,False,False
64,1,1,65,attraction,B,L,B,target,6280.0,0.72,0.65,0.63,5,14,13,2,0,1,True,True,True
65,1,1,66,filler,,L,C,,7260.0,0.29,0.42,0.72,34,23,13,2,1,0,False,False,False
66,1,1,67,filler,,R,C,,2930.0,0.31,0.38,0.85,32,26,11,0,1,2,False,False,False
67,1,1,68,filler,,L,C,,7180.0,0.27,0.61,0.89,37,16,11,1,2,0,True,False,True
68,1,1,69,compromise,A,L,B,competitor,6470.0,0.75,0.68,0.88,4,15,3,1,0,2,False,True,True
69,1,1,70,attraction,B,L,B,target,5340.0,0.72,0.62,0.6,5,14,13,1,0,2,True,True,True
70,1,1,71,compromise,A,R,B,competitor,6660.0,0.78,0.65,0.82,5,14,3,0,2,1,False,False,True
71,1,1,72,attraction,A,M,B,competitor,3290.0,0.78,0.62,0.76,5,14,4,0,1,2,True,True,True
72,1,1,73,attraction,A,L,B,competitor,2960.0,0.78,0.68,0.76,5,15,4,2,0,1,True,True,True
73,1,1,74,compromise,A,M,B,competitor,3920.0,0.78,0.68,0.82,5,15,3,2,1,0,False,False,True
74,1,1,75,attraction,B,L,B,target,3340.0,0.72,0.62,0.6,5,15,14,2,0,1,False,False,False
75,1,2,76,attraction,B,R,A,competitor,5540.0,0.78,0.65,0.63,9,15,14,2,1,0,True,True,True
76,1,2,77,attraction,A,R,A,target,6320.0,0.75,0.65,0.73,9,15,8,2,1,0,False,True,True
77,1,2,78,attraction,B,R,B,target,6670.0,0.72,0.65,0.63,9,14,13,1,2,0,True,False,True
78,1,2,79,compromise,A,L,B,competitor,5180.0,0.78,0.68,0.88,9,15,4,2,0,1,True,False,True
79,1,2,80,compromise,A,M,B,competitor,4370.0,0.72,0.65,0.82,9,15,4,0,1,2,True,False,True
80,1,2,81,compromise,B,M,C,decoy,2920.0,0.75,0.68,0.55,8,14,28,0,2,1,True,True,True
81,1,2,82,attraction,B,L,B,target,3560.0,0.78,0.68,0.66,8,14,13,1,0,2,True,False,True
82,1,2,83,filler,,R,C,,8160.0,0.27,0.47,0.86,37,21,11,1,0,2,False,True,False
83,1,2,84,compromise,B,M,B,target,8610.0,0.72,0.65,0.58,8,15,28,2,1,0,False,False,False
84,1,2,85,compromise,B,L,C,decoy,8890.0,0.72,0.65,0.52,9,15,28,1,2,0,True,True,True
85,1,2,86,attraction,B,M,B,target,5540.0,0.72,0.62,0.6,8,15,14,2,1,0,False,False,False
86,1,2,87,attraction,A,L,B,competitor,7900.0,0.72,0.65,0.7,9,15,8,1,0,2,False,False,True
87,1,2,88,compromise,B,L,C,decoy,4490.0,0.78,0.62,0.55,9,14,29,2,1,0,False,True,False
88,1,2,89,attraction,B,L,B,target,6260.0,0.75,0.65,0.63,8,14,13,2,0,1,False,True,True
89,1,2,90,filler,,M,C,,7650.0,0.31,0.38,0.85,32,26,11,2,0,1,False,False,False
90,1,2,91,attraction,B,L,B,target,4830.0,0.78,0.65,0.63,8,15,14,1,0,2,True,True,False
91,1,2,92,filler,,M,C,,4190.0,0.29,0.42,0.72,34,23,13,2,0,1,False,True,True
92,1,2,93,filler,,M,C,,4910.0,0.19,0.56,0.8,52,17,12,0,2,1,False,False,False
93,1,2,94,compromise,B,L,C,decoy,3980.0,0.75,0.62,0.58,9,14,29,2,1,0,True,False,False
94,1,2,95,filler,,L,C,,4000.0,0.32,0.48,0.85,31,20,11,1,2,0,True,True,False
95,1,2,96,attraction,A,R,B,competitor,8050.000000000001,0.78,0.62,0.76,8,15,7,0,2,1,False,False,True
96,1,2,97,filler,,L,C,,5620.0,0.16,0.46,0.87,62,21,11,2,1,0,False,True,False
97,1,2,98,compromise,A,L,B,competitor,11410.0,0.78,0.68,0.88,8,15,5,2,0,1,True,False,True
98,1,2,99,compromise,A,R,B,competitor,2550.0,0.75,0.65,0.82,9,15,4,1,2,0,False,True,True
99,1,2,100,filler,,L,C,,4610.0,0.24,0.37,0.76,41,27,13,2,1,0,False,True,False
100,1,2,101,compromise,A,M,B,competitor,3250.0,0.78,0.68,0.82,9,15,5,2,1,0,True,True,True
101,1,2,102,compromise,B,M,C,decoy,4210.0,0.75,0.62,0.58,8,15,28,2,0,1,False,False,True
102,1,2,103,filler,,L,C,,8230.0,0.27,0.61,0.89,37,16,11,1,2,0,False,False,True
103,1,2,104,attraction,A,M,B,competitor,3140.0,0.78,0.68,0.76,9,15,8,0,1,2,False,True,True
104,1,2,105,attraction,A,R,B,competitor,3930.0,0.75,0.65,0.73,8,15,7,1,2,0,False,True,False
105,1,2,106,compromise,B,M,C,decoy,2930.0,0.78,0.65,0.52,9,14,28,0,2,1,False,False,False
106,1,2,107,compromise,B,L,B,target,3880.0,0.72,0.68,0.58,8,15,29,2,0,1,False,True,False
107,1,2,108,attraction,B,M,B,target,2580.0,0.72,0.62,0.6,9,14,13,0,1,2,False,False,False
108,1,2,109,filler,,R,C,,13030.0,0.32,0.6,0.78,31,16,12,1,0,2,True,False,False
109,1,2,110,filler,,M,C,,4500.0,0.19,0.59,0.81,52,16,12,0,2,1,True,True,True
110,1,2,111,compromise,A,L,A,target,6580.0,0.78,0.65,0.82,9,14,4,0,1,2,False,True,False
111,1,2,112,compromise,A,M,B,competitor,2890.0,0.72,0.68,0.82,9,15,4,2,1,0,False,False,True
112,1,2,113,compromise,A,M,B,competitor,5240.0,0.78,0.62,0.85,9,14,4,0,1,2,True,False,True
113,1,2,114,compromise,A,R,B,competitor,2660.0,0.75,0.65,0.85,9,15,5,0,2,1,False,True,True
114,1,2,115,attraction,A,R,B,competitor,3540.0,0.78,0.68,0.76,8,15,7,0,2,1,False,True,True
115,1,2,116,compromise,B,M,C,decoy,3950.0,0.72,0.68,0.52,9,15,29,2,0,1,True,True,True
116,1,2,117,attraction,B,R,B,target,2880.0,0.78,0.62,0.6,8,14,13,0,2,1,True,True,True
117,1,2,118,attraction,B,L,B,target,3020.0,0.72,0.68,0.66,9,14,13,1,0,2,True,False,False
118,1,2,119,attraction,A,M,B,competitor,2400.0,0.75,0.68,0.73,8,14,7,0,1,2,False,False,False
119,1,2,120,attraction,A,L,B,competitor,2600.0,0.75,0.65,0.73,9,14,8,2,0,1,False,False,False
120,1,2,121,attraction,B,M,B,target,2090.0,0.72,0.62,0.6,9,15,14,0,1,2,True,False,False
121,1,2,122,compromise,B,R,C,decoy,3130.0,0.75,0.65,0.55,9,14,28,1,0,2,False,True,True
122,1,2,123,attraction,A,M,B,competitor,7760.0,0.75,0.65,0.73,9,14,8,0,1,2,True,False,False
123,1,2,124,compromise,B,L,C,decoy,5480.0,0.72,0.68,0.58,9,14,29,1,2,0,True,True,False
124,1,2,125,attraction,B,M,B,target,3870.0,0.78,0.65,0.63,9,15,14,2,1,0,True,True,False
125,1,2,126,compromise,A,L,B,competitor,3230.0,0.75,0.68,0.88,8,15,5,1,0,2,True,False,False
126,1,2,127,compromise,A,R,B,competitor,2400.0,0.72,0.68,0.82,9,15,4,0,2,1,False,False,True
127,1,2,128,compromise,B,R,C,decoy,2630.0,0.72,0.62,0.58,8,14,29,1,0,2,True,True,False
128,1,2,129,attraction,B,R,B,target,6080.0,0.75,0.68,0.66,8,14,13,0,2,1,False,False,False
129,1,2,130,filler,,R,C,,3690.0,0.28,0.67,0.78,35,14,12,0,1,2,True,True,False
130,1,2,131,compromise,B,L,C,decoy,4520.0,0.72,0.62,0.55,9,14,29,1,2,0,True,True,True
131,1,2,132,attraction,A,L,B,competitor,2960.0,0.72,0.62,0.7,9,15,8,1,0,2,False,True,True
132,1,2,133,attraction,B,M,B,target,5250.0,0.78,0.62,0.6,8,15,14,2,1,0,False,False,True
133,1,2,134,attraction,A,M,B,competitor,9010.0,0.72,0.68,0.7,8,14,7,0,1,2,True,True,True
134,1,2,135,compromise,A,M,B,competitor,4480.0,0.78,0.62,0.85,8,15,4,0,1,2,False,False,True
135,1,2,136,attraction,A,M,B,competitor,2480.0,0.72,0.65,0.7,8,15,7,2,1,0,False,False,False
136,1,2,137,attraction,B,R,B,target,4550.0,0.72,0.62,0.6,9,15,14,1,2,0,True,False,False
137,1,2,138,attraction,B,L,B,target,2860.0,0.75,0.62,0.6,8,15,14,2,0,1,True,True,True
138,1,2,139,attraction,A,M,B,competitor,5070.0,0.78,0.62,0.76,9,14,8,2,1,0,False,True,True
139,1,2,140,attraction,A,M,B,competitor,9710.0,0.72,0.65,0.7,8,14,7,0,1,2,True,False,False
140,1,2,141,compromise,A,M,B,competitor,2870.0,0.78,0.65,0.82,9,14,5,0,1,2,False,False,False
141,1,2,142,attraction,B,M,B,target,4640.0,0.78,0.62,0.6,9,15,14,0,1,2,False,True,False
142,1,2,143,compromise,B,M,C,decoy,2660.0,0.72,0.62,0.55,9,14,29,2,0,1,False,False,False
143,1,2,144,compromise,B,L,C,decoy,4040.0,0.72,0.68,0.55,8,14,29,1,2,0,True,False,True
144,1,2,145,compromise,A,M,B,competitor,3050.0,0.75,0.62,0.88,8,15,5,2,1,0,False,True,False
145,1,2,146,attraction,A,M,B,competitor,2040.0,0.72,0.65,0.7,8,15,7,2,1,0,False,True,True
146,1,2,147,compromise,A,L,B,competitor,2210.0,0.75,0.62,0.88,9,15,4,2,0,1,False,False,True
147,1,2,148,attraction,A,L,B,competitor,2890.0,0.75,0.65,0.73,9,15,8,1,0,2,False,False,True
148,1,2,149,compromise,B,L,C,decoy,2580.0,0.72,0.65,0.55,8,15,29,2,1,0,False,True,True
149,1,2,150,compromise,A,R,B,competitor,2380.0,0.78,0.68,0.85,8,15,4,0,2,1,True,False,True
150,1,3,151,attraction,A,L,B,competitor,4750.0,0.75,0.65,0.73,11,15,10,1,0,2,True,True,False
151,1,3,152,compromise,B,R,A,competitor,8940.0,0.72,0.68,0.58,10,15,21,2,1,0,True,True,True
152,1,3,153,attraction,A,M,A,target,5000.0,0.78,0.62,0.76,11,14,10,1,2,0,True,True,True
153,1,3,154,compromise,B,M,A,competitor,4610.0,0.75,0.62,0.58,11,14,21,1,0,2,True,True,True
154,1,3,155,compromise,B,M,A,competitor,4120.0,0.72,0.65,0.55,10,15,21,1,2,0,True,True,True
155,1,3,156,attraction,A,M,B,competitor,3160.0,0.75,0.68,0.73,10,14,9,0,1,2,False,True,True
156,1,3,157,compromise,B,M,C,decoy,4560.0,0.72,0.68,0.58,11,14,21,2,0,1,True,True,True
157,1,3,158,attraction,B,R,B,target,6710.0,0.78,0.68,0.66,10,14,13,0,2,1,False,True,False
158,1,3,159,attraction,A,L,B,competitor,3340.0,0.78,0.68,0.76,11,15,10,2,0,1,False,False,True
159,1,3,160,attraction,B,M,B,target,8220.0,0.78,0.62,0.6,11,15,14,0,1,2,False,True,True
160,1,3,161,attraction,A,R,B,competitor,7400.0,0.75,0.65,0.73,11,14,10,0,2,1,False,False,True
161,1,3,162,compromise,A,L,B,competitor,6150.0,0.75,0.68,0.88,10,15,9,2,0,1,True,False,False
162,1,3,163,compromise,B,R,B,target,9260.0,0.72,0.68,0.55,10,14,21,1,2,0,False,True,True
163,1,3,164,attraction,A,M,B,competitor,2860.0,0.78,0.68,0.76,10,15,9,2,1,0,False,True,True
164,1,3,165,attraction,A,M,B,competitor,2890.0,0.72,0.65,0.7,10,15,9,2,1,0,True,True,True
165,1,3,166,attraction,B,M,B,target,3350.0,0.78,0.62,0.6,10,15,14,0,1,2,False,False,True
166,1,3,167,compromise,B,L,A,competitor,3520.0,0.72,0.65,0.52,11,15,20,0,1,2,False,False,False
167,1,3,168,compromise,B,R,B,target,4280.0,0.72,0.62,0.55,11,14,21,1,2,0,True,True,True
168,1,3,169,filler,,M,C,,8320.0,0.32,0.6,0.78,31,16,12,0,2,1,False,True,True
169,1,3,170,attraction,B,L,B,target,4390.0,0.72,0.62,0.6,11,14,13,1,0,2,True,False,True
170,1,3,171,compromise,A,M,B,competitor,6050.0,0.78,0.62,0.85,11,14,8,0,1,2,True,True,False
171,1,3,172,filler,,M,C,,8180.0,0.19,0.59,0.81,52,16,12,2,0,1,False,False,True
172,1,3,173,compromise,A,L,B,competitor,4860.0,0.72,0.68,0.82,11,15,8,1,0,2,False,True,False
173,1,3,174,compromise,A,M,B,competitor,12170.0,0.78,0.68,0.82,11,15,9,0,1,2,False,True,True
174,1,3,175,compromise,A,R,B,competitor,3700.0,0.75,0.62,0.88,11,15,8,0,2,1,True,True,True
175,1,3,176,compromise,A,R,B,competitor,9840.0,0.75,0.65,0.82,11,15,8,1,2,0,True,True,False
176,1,3,177,attraction,A,M,A,target,3860.0,0.75,0.65,0.73,11,14,10,1,2,0,True,False,False
177,1,3,178,attraction,B,M,B,target,3700.0,0.72,0.62,0.6,10,15,14,2,1,0,True,False,True
178,1,3,179,filler,,L,C,,2900.0,0.29,0.42,0.72,34,23,13,2,1,0,True,True,True
179,1,3,180,compromise,A,M,C,decoy,8730.0,0.78,0.62,0.85,10,15,8,2,0,1,False,False,True
180,1,3,181,compromise,B,M,A,competitor,8160.0,0.75,0.65,0.55,11,14,20,1,0,2,True,True,False
181,1,3,182,compromise,B,R,B,target,4210.0,0.72,0.68,0.52,11,15,21,0,2,1,False,False,False
182,1,3,183,attraction,B,R,B,target,7010.0,0.72,0.65,0.63,11,14,13,1,2,0,True,True,False
183,1,3,184,attraction,B,M,B,target,3170.0,0.72,0.62,0.6,11,15,14,0,1,2,False,True,True
184,1,3,185,attraction,B,R,A,competitor,5430.0,0.78,0.62,0.6,10,14,13,2,0,1,False,True,True
185,1,3,186,attraction,A,L,B,competitor,7640.0,0.72,0.65,0.7,10,14,9,2,0,1,False,False,True
186,1,3,187,attraction,A,R,B,competitor,14720.0,0.75,0.65,0.73,11,15,10,0,2,1,False,True,False
187,1,3,188,filler,,R,C,,4600.0,0.19,0.56,0.8,52,17,12,1,0,2,True,False,True
188,1,3,189,filler,,M,C,,4220.0,0.32,0.48,0.85,31,20,11,0,2,1,True,False,True
189,1,3,190,attraction,A,L,B,competitor,3770.0,0.75,0.65,0.73,10,15,9,1,0,2,False,True,False
190,1,3,191,compromise,B,M,A,competitor,14200.0,0.78,0.62,0.55,11,14,21,1,2,0,True,False,False
191,1,3,192,filler,,L,C,,3190.0,0.24,0.37,0.76,41,27,13,2,1,0,True,False,False
192,1,3,193,attraction,B,M,A,competitor,7230.0,0.75,0.65,0.63,10,14,13,1,0,2,True,False,False
193,1,3,194,attraction,B,L,B,target,4670.0,0.78,0.65,0.63,11,15,14,2,0,1,False,True,False
194,1,3,195,compromise,B,L,A,competitor,3750.0,0.72,0.62,0.55,11,14,21,0,1,2,True,False,False
195,1,3,196,compromise,B,M,A,competitor,5370.0,0.72,0.62,0.58,10,14,21,1,2,0,False,False,False
196,1,3,197,attraction,A,M,B,competitor,11540.0,0.72,0.65,0.7,11,15,10,2,1,0,True,True,False
197,1,3,198,filler,,M,C,,2710.0,0.31,0.38,0.85,32,26,11,0,2,1,False,False,False
198,1,3,199,attraction,B,R,A,competitor,10540.0,0.78,0.65,0.63,11,15,14,2,0,1,False,True,True
199,1,3,200,compromise,B,R,B,target,6610.0,0.75,0.68,0.55,10,14,20,0,2,1,True,False,False
200,1,3,201,compromise,B,L,A,competitor,9650.0,0.78,0.65,0.52,11,14,20,0,2,1,True,True,True
201,1,3,202,filler,,L,C,,3010.0,0.16,0.46,0.87,62,21,11,1,2,0,True,True,True
202,1,3,203,compromise,A,R,A,target,8540.0,0.72,0.65,0.82,11,15,8,2,1,0,True,False,True
203,1,3,204,compromise,A,R,A,target,4470.0,0.78,0.68,0.85,10,15,8,2,1,0,True,False,False
204,1,3,205,compromise,A,M,C,decoy,9500.0,0.75,0.65,0.85,11,15,9,2,0,1,False,True,False
205,1,3,206,compromise,A,M,A,target,4080.0,0.78,0.65,0.82,11,14,8,1,0,2,False,False,False
206,1,3,207,compromise,A,R,B,competitor,5340.0,0.72,0.68,0.82,11,15,8,1,2,0,True,True,True
207,1,3,208,attraction,B,M,B,target,6290.0,0.78,0.65,0.63,10,15,14,2,1,0,True,True,True
208,1,3,209,attraction,A,R,C,decoy,5700.0,0.72,0.68,0.7,10,14,9,1,0,2,False,True,True
209,1,3,210,compromise,A,M,A,target,12590.0,0.75,0.62,0.88,10,15,9,1,2,0,False,True,True
210,1,3,211,compromise,A,R,C,decoy,5500.0,0.78,0.68,0.88,10,15,9,0,1,2,True,True,True
211,1,3,212,attraction,A,R,A,target,8119.999999999999,0.72,0.62,0.7,11,15,10,2,0,1,False,True,False
212,1,3,213,compromise,B,R,B,target,6260.0,0.72,0.65,0.58,10,15,20,0,2,1,True,True,False
213,1,3,214,compromise,A,R,B,competitor,4720.0,0.78,0.68,0.88,11,15,8,0,2,1,True,False,False
214,1,3,215,filler,,L,C,,11820.0,0.27,0.47,0.86,37,21,11,1,2,0,False,True,True
215,1,3,216,attraction,B,R,B,target,7270.0,0.72,0.68,0.66,11,14,13,0,2,1,True,True,True
216,1,3,217,compromise,B,M,A,competitor,13230.0,0.75,0.62,0.58,10,15,20,1,2,0,True,False,False
217,1,3,218,attraction,A,R,A,target,12410.0,0.78,0.62,0.76,10,15,9,2,1,0,False,False,False
218,1,3,219,filler,,L,C,,5030.0,0.27,0.61,0.89,37,16,11,1,2,0,True,True,True
219,1,3,220,attraction,A,R,B,competitor,5840.0,0.72,0.65,0.7,10,15,9,1,2,0,True,False,False
220,1,3,221,attraction,B,R,B,target,11530.0,0.72,0.62,0.6,11,15,14,0,2,1,False,True,True
221,1,3,222,attraction,B,R,B,target,4590.0,0.75,0.62,0.6,10,15,14,0,2,1,False,False,False
222,1,3,223,filler,,R,C,,7690.0,0.28,0.67,0.78,35,14,12,1,0,2,True,True,False
223,1,3,224,compromise,A,M,A,target,5590.0,0.78,0.65,0.82,11,14,9,1,0,2,True,True,True
224,1,3,225,attraction,B,L,B,target,8700.0,0.75,0.68,0.66,10,14,13,1,0,2,True,True,True
0,2,1,1,filler,,M,C,,4260.0,0.31,0.38,0.85,32,26,11,0,2,1,False,False,False
1,2,1,2,compromise,A,L,A,target,3330.0,0.78,0.68,0.82,13,15,9,0,2,1,False,False,False
2,2,1,3,attraction,B,M,A,competitor,8180.0,0.72,0.62,0.6,13,14,13,1,0,2,True,True,True
3,2,1,4,attraction,A,L,A,target,10780.0,0.75,0.68,0.73,12,14,11,0,2,1,True,False,True
4,2,1,5,filler,,M,C,,8870.0,0.27,0.61,0.89,37,16,11,0,2,1,True,True,True
5,2,1,6,filler,,L,C,,10270.0,0.32,0.6,0.78,31,16,12,2,1,0,True,True,True
6,2,1,7,compromise,A,L,A,target,7610.0,0.78,0.68,0.88,12,15,9,0,2,1,True,True,False
7,2,1,8,attraction,A,L,A,target,10700.0,0.72,0.62,0.7,13,15,12,0,1,2,True,False,True
8,2,1,9,attraction,A,R,A,target,6190.0,0.75,0.65,0.73,13,14,12,2,1,0,True,False,False
9,2,1,10,compromise,A,L,A,target,8010.0,0.75,0.62,0.88,12,15,9,0,2,1,True,False,False
10,2,1,11,attraction,A,M,A,target,6370.0,0.78,0.68,0.76,13,15,12,1,2,0,False,True,True
11,2,1,12,filler,,L,C,,7520.0,0.27,0.47,0.86,37,21,11,2,1,0,True,True,True
12,2,1,13,attraction,B,L,A,competitor,7480.0,0.78,0.65,0.63,13,15,14,0,2,1,True,True,False
13,2,1,14,attraction,B,R,A,competitor,4910.0,0.72,0.65,0.63,13,14,13,2,0,1,False,False,False
14,2,1,15,compromise,A,R,A,target,5890.0,0.72,0.68,0.82,13,15,8,2,0,1,False,False,False
15,2,1,16,compromise,B,R,A,competitor,6640.0,0.72,0.68,0.52,13,15,35,2,0,1,True,True,True
16,2,1,17,compromise,B,R,A,competitor,5930.0,0.72,0.65,0.58,12,15,34,2,0,1,False,False,True
17,2,1,18,attraction,B,R,A,competitor,7620.0,0.72,0.62,0.6,12,15,14,2,1,0,False,True,True
18,2,1,19,compromise,A,M,A,target,8000.0,0.78,0.68,0.85,12,15,8,1,0,2,False,False,False
19,2,1,20,attraction,A,M,A,target,8820.0,0.72,0.65,0.7,13,15,12,1,0,2,True,False,True
20,2,1,21,compromise,A,M,A,target,4630.0,0.78,0.65,0.82,13,14,8,1,0,2,False,True,True
21,2,1,22,compromise,A,M,A,target,7330.0,0.75,0.65,0.85,13,15,9,1,0,2,False,False,True
22,2,1,23,compromise,A,M,A,target,10610.0,0.72,0.68,0.82,13,15,8,1,2,0,True,True,False
23,2,1,24,compromise,A,L,A,target,12010.0,0.75,0.65,0.82,13,15,8,0,1,2,True,False,False
24,2,1,25,attraction,B,L,A,competitor,6390.0,0.72,0.62,0.6,13,15,14,0,2,1,False,True,True
25,2,1,26,attraction,A,L,A,target,7260.0,0.75,0.65,0.73,13,15,12,0,1,2,True,False,True
26,2,1,27,compromise,B,L,A,competitor,4770.0,0.72,0.62,0.58,12,14,35,0,1,2,True,True,True
27,2,1,28,compromise,B,M,A,competitor,3750.0,0.78,0.65,0.52,13,14,34,1,0,2,False,True,True
28,2,1,29,compromise,A,M,A,target,5510.0,0.75,0.62,0.88,13,15,8,1,2,0,False,False,True
29,2,1,30,compromise,A,M,A,target,6600.0,0.72,0.65,0.82,13,15,8,1,0,2,False,False,False
30,2,1,31,compromise,B,M,A,competitor,8750.0,0.72,0.68,0.58,12,15,35,1,2,0,True,False,True
31,2,1,32,filler,,R,C,,5080.0,0.19,0.59,0.81,52,16,12,0,1,2,False,True,False
32,2,1,33,attraction,B,L,A,competitor,9930.0,0.75,0.65,0.63,12,14,13,0,2,1,True,False,False
33,2,1,34,compromise,B,R,A,competitor,6620.0,0.75,0.62,0.58,13,14,35,2,0,1,False,True,True
34,2,1,35,compromise,B,M,A,competitor,5690.0,0.72,0.65,0.52,13,15,34,1,2,0,False,False,False
35,2,1,36,filler,,R,C,,2240.0,0.29,0.42,0.72,34,23,13,1,0,2,True,True,True
36,2,1,37,attraction,A,L,A,target,6940.0,0.78,0.68,0.76,12,15,11,0,1,2,True,False,False
37,2,1,38,attraction,B,L,A,competitor,6300.0,0.72,0.62,0.6,13,15,14,0,1,2,True,True,False
38,2,1,39,filler,,R,C,,6170.0,0.16,0.46,0.87,62,21,11,0,1,2,False,True,True
39,2,1,40,compromise,A,R,A,target,9850.0,0.78,0.65,0.82,13,14,9,2,0,1,False,True,True
40,2,1,41,compromise,B,M,A,competitor,5970.0,0.75,0.68,0.55,12,14,34,1,0,2,True,True,False
41,2,1,42,compromise,B,L,A,competitor,4090.0,0.72,0.68,0.58,13,14,35,0,2,1,False,True,False
42,2,1,43,attraction,B,L,A,competitor,7680.0,0.75,0.62,0.6,12,15,14,0,1,2,True,True,False
43,2,1,44,compromise,B,R,A,competitor,6130.0,0.72,0.62,0.55,13,14,35,2,0,1,False,False,True
44,2,1,45,compromise,A,R,A,target,6740.0,0.78,0.68,0.88,13,15,8,2,1,0,True,False,False
45,2,1,46,compromise,A,M,A,target,5940.0,0.78,0.62,0.85,13,14,8,1,0,2,True,False,False
46,2,1,47,attraction,B,M,A,competitor,9020.0,0.78,0.68,0.66,12,14,13,1,2,0,True,True,False
47,2,1,48,attraction,B,L,A,competitor,11970.0,0.78,0.65,0.63,13,15,14,0,1,2,False,True,False
48,2,1,49,compromise,B,L,A,competitor,7160.0,0.78,0.62,0.55,13,14,35,0,1,2,False,True,True
49,2,1,50,attraction,A,R,A,target,5720.0,0.72,0.65,0.7,12,14,11,2,1,0,False,False,False
50,2,1,51,compromise,B,M,A,competitor,4059.9999999999995,0.72,0.68,0.55,12,14,35,1,0,2,False,False,True
51,2,1,52,attraction,A,M,A,target,4240.0,0.78,0.62,0.76,12,15,11,1,0,2,True,False,False
52,2,1,53,filler,,R,C,,3990.0,0.24,0.37,0.76,41,27,13,0,1,2,False,False,False
53,2,1,54,attraction,B,M,A,competitor,8390.0,0.75,0.68,0.66,12,14,13,1,0,2,False,True,False
54,2,1,55,compromise,A,L,A,target,6080.0,0.78,0.62,0.85,12,15,8,0,1,2,False,False,False
55,2,1,56,filler,,L,C,,5850.0,0.32,0.48,0.85,31,20,11,1,2,0,True,False,False
56,2,1,57,attraction,A,L,A,target,10100.0,0.75,0.65,0.73,13,15,12,0,1,2,True,False,True
57,2,1,58,attraction,A,L,A,target,7300.0,0.72,0.65,0.7,12,15,11,0,2,1,True,True,True
58,2,1,59,compromise,B,M,A,competitor,5690.0,0.75,0.65,0.55,13,14,34,1,0,2,False,True,False
59,2,1,60,attraction,B,R,A,competitor,3830.0,0.78,0.62,0.6,13,15,14,2,0,1,False,True,True
60,2,1,61,attraction,A,R,A,target,4930.0,0.75,0.65,0.73,12,15,11,2,1,0,True,False,False
61,2,1,62,attraction,A,R,A,target,5240.0,0.75,0.65,0.73,13,14,12,2,0,1,True,True,True
62,2,1,63,compromise,A,R,A,target,11730.0,0.75,0.68,0.88,12,15,9,2,1,0,False,False,False
63,2,1,64,attraction,B,L,A,competitor,10230.0,0.78,0.62,0.6,12,15,14,0,1,2,False,False,False
64,2,1,65,attraction,B,M,A,competitor,5490.0,0.78,0.62,0.6,12,14,13,1,2,0,True,False,True
65,2,1,66,attraction,A,M,A,target,5850.0,0.72,0.65,0.7,12,15,11,1,0,2,False,True,True
66,2,1,67,filler,,R,C,,5000.0,0.28,0.67,0.78,35,14,12,1,0,2,True,True,True
67,2,1,68,attraction,B,L,A,competitor,8310.0,0.72,0.68,0.66,13,14,13,0,2,1,False,False,True
68,2,1,69,attraction,A,M,B,competitor,10560.0,0.72,0.68,0.7,12,14,11,0,1,2,True,True,True
69,2,1,70,attraction,B,R,A,competitor,4580.0,0.78,0.65,0.63,12,15,14,2,0,1,True,True,True
70,2,1,71,attraction,A,R,A,target,6950.0,0.78,0.62,0.76,13,14,12,2,1,0,False,False,True
71,2,1,72,compromise,B,R,A,competitor,6100.0,0.72,0.62,0.55,13,14,35,2,0,1,False,False,False
72,2,1,73,compromise,B,L,A,competitor,5080.0,0.75,0.62,0.58,12,15,34,0,2,1,True,False,True
73,2,1,74,filler,,M,C,,6320.0,0.19,0.56,0.8,52,17,12,2,0,1,False,True,True
74,2,1,75,compromise,B,M,A,competitor,11170.0,0.72,0.65,0.55,12,15,35,1,0,2,True,True,False
75,2,2,76,attraction,A,R,A,target,9300.0,0.78,0.68,0.76,8,15,7,2,0,1,True,False,True
76,2,2,77,compromise,B,M,B,target,5170.0,0.72,0.68,0.55,7,14,35,0,1,2,True,False,True
77,2,2,78,attraction,A,L,A,target,8620.0,0.72,0.65,0.7,7,15,6,0,2,1,True,True,True
78,2,2,79,filler,,R,C,,3850.0,0.24,0.37,0.76,41,27,13,1,0,2,True,False,True
79,2,2,80,attraction,B,M,A,competitor,9730.0,0.78,0.65,0.63,8,15,14,1,0,2,False,True,False
80,2,2,81,compromise,A,M,B,competitor,9170.0,0.72,0.68,0.82,8,15,4,2,1,0,False,False,False
81,2,2,82,attraction,A,M,A,target,7110.0,0.78,0.62,0.76,7,15,6,1,2,0,True,True,True
82,2,2,83,attraction,B,R,A,competitor,4290.0,0.72,0.62,0.6,8,15,14,2,1,0,False,False,False
83,2,2,84,compromise,A,M,A,target,4030.0000000000005,0.78,0.68,0.88,8,15,4,1,0,2,False,False,True
84,2,2,85,compromise,A,M,B,competitor,12200.0,0.72,0.68,0.82,8,15,4,2,1,0,False,True,False
85,2,2,86,attraction,A,R,A,target,8730.0,0.75,0.65,0.73,7,15,6,2,0,1,False,True,True
86,2,2,87,compromise,B,R,A,competitor,5460.0,0.72,0.62,0.55,8,14,35,2,0,1,False,False,False
87,2,2,88,compromise,A,M,A,target,6780.0,0.75,0.65,0.82,8,15,4,1,0,2,True,True,False
88,2,2,89,attraction,A,R,A,target,4610.0,0.72,0.65,0.7,8,15,7,2,0,1,False,True,True
89,2,2,90,attraction,A,R,B,competitor,12010.0,0.72,0.68,0.7,7,14,6,0,2,1,False,False,False
90,2,2,91,attraction,A,R,A,target,9930.0,0.75,0.65,0.73,8,15,7,2,1,0,True,False,False
91,2,2,92,attraction,B,R,B,target,12270.0,0.72,0.68,0.66,8,14,13,1,2,0,True,True,False
92,2,2,93,attraction,B,R,B,target,6180.0,0.75,0.68,0.66,7,14,13,0,2,1,False,False,True
93,2,2,94,compromise,A,R,A,target,7720.0,0.78,0.68,0.85,7,15,4,2,1,0,False,True,False
94,2,2,95,filler,,M,C,,6140.0,0.27,0.47,0.86,37,21,11,2,0,1,True,False,True
95,2,2,96,attraction,B,R,B,target,10660.0,0.72,0.65,0.63,8,14,13,1,2,0,False,True,True
96,2,2,97,filler,,L,C,,8130.000000000001,0.16,0.46,0.87,62,21,11,2,1,0,False,True,False
97,2,2,98,attraction,B,R,A,competitor,5780.0,0.78,0.62,0.6,7,15,14,2,1,0,True,True,True
98,2,2,99,compromise,B,L,B,target,9720.0,0.72,0.68,0.58,7,15,35,2,0,1,False,False,True
99,2,2,100,attraction,B,M,A,competitor,8410.0,0.72,0.62,0.6,8,14,13,1,2,0,False,False,True
100,2,2,101,attraction,B,L,A,competitor,4870.0,0.75,0.62,0.6,7,15,14,0,1,2,False,True,True
101,2,2,102,attraction,B,M,A,competitor,6020.0,0.75,0.65,0.63,7,14,13,1,2,0,False,True,False
102,2,2,103,compromise,A,L,A,target,7060.0,0.78,0.62,0.85,8,14,4,0,2,1,False,False,False
103,2,2,104,attraction,B,R,A,competitor,6230.0,0.78,0.65,0.63,7,15,14,2,0,1,False,True,False
104,2,2,105,filler,,R,C,,4750.0,0.19,0.59,0.81,52,16,12,0,1,2,False,False,False
105,2,2,106,compromise,B,M,A,competitor,5080.0,0.75,0.62,0.58,7,15,34,1,0,2,True,False,False
106,2,2,107,compromise,B,L,A,competitor,3440.0,0.78,0.62,0.55,8,14,35,0,2,1,True,True,True
107,2,2,108,compromise,A,L,A,target,6290.0,0.78,0.65,0.82,8,14,5,0,1,2,False,True,False
108,2,2,109,compromise,A,R,A,target,8790.0,0.78,0.65,0.82,8,14,4,2,1,0,False,False,True
109,2,2,110,filler,,R,C,,4250.0,0.29,0.42,0.72,34,23,13,0,1,2,True,False,True
110,2,2,111,attraction,A,L,A,target,3630.0,0.78,0.62,0.76,8,14,7,0,2,1,False,True,True
111,2,2,112,attraction,B,L,A,competitor,3450.0,0.72,0.62,0.6,8,15,14,0,2,1,False,True,True
112,2,2,113,attraction,B,R,A,competitor,5470.0,0.78,0.62,0.6,8,15,14,2,0,1,True,True,True
113,2,2,114,compromise,B,R,B,target,15840.0,0.72,0.65,0.52,8,15,34,0,2,1,True,True,True
114,2,2,115,filler,,R,C,,6620.0,0.32,0.6,0.78,31,16,12,1,0,2,True,False,False
115,2,2,116,compromise,A,R,C,decoy,6600.0,0.75,0.62,0.88,7,15,5,0,1,2,False,False,False
116,2,2,117,attraction,A,R,A,target,6920.0,0.72,0.65,0.7,7,15,6,2,0,1,False,False,False
117,2,2,118,compromise,B,L,A,competitor,4560.0,0.72,0.62,0.58,7,14,35,0,1,2,True,False,False
118,2,2,119,compromise,A,R,C,decoy,5340.0,0.75,0.68,0.88,7,15,5,1,0,2,False,True,True
119,2,2,120,compromise,B,L,A,competitor,7530.0,0.75,0.65,0.55,8,14,34,0,1,2,True,False,False
120,2,2,121,compromise,B,R,B,target,9420.0,0.72,0.65,0.55,7,15,35,1,2,0,True,True,False
121,2,2,122,compromise,B,M,B,target,10000.0,0.75,0.68,0.55,7,14,34,2,1,0,True,True,False
122,2,2,123,compromise,A,M,A,target,10000.0,0.78,0.62,0.85,7,15,4,1,0,2,True,False,False
123,2,2,124,attraction,A,L,A,target,6610.0,0.78,0.68,0.76,7,15,6,0,2,1,False,False,True
124,2,2,125,attraction,B,M,A,competitor,4610.0,0.78,0.62,0.6,7,14,13,1,0,2,True,True,False
125,2,2,126,filler,,M,C,,3570.0,0.31,0.38,0.85,32,26,11,0,2,1,False,False,False
126,2,2,127,compromise,A,L,A,target,7570.0,0.78,0.68,0.88,7,15,5,0,1,2,True,True,False
127,2,2,128,attraction,A,M,A,target,10570.0,0.75,0.68,0.73,7,14,6,1,2,0,True,True,True
128,2,2,129,filler,,R,C,,5250.0,0.19,0.56,0.8,52,17,12,1,0,2,False,True,True
129,2,2,130,attraction,A,R,A,target,6130.0,0.75,0.65,0.73,8,15,7,2,1,0,False,False,True
130,2,2,131,compromise,B,L,A,competitor,4220.0,0.75,0.62,0.58,8,14,35,0,1,2,True,True,True
131,2,2,132,attraction,A,L,A,target,7560.0,0.75,0.65,0.73,8,14,7,0,1,2,False,False,True
132,2,2,133,compromise,B,R,A,competitor,10280.0,0.78,0.65,0.52,8,14,34,2,1,0,False,False,False
133,2,2,134,filler,,L,C,,6090.0,0.27,0.61,0.89,37,16,11,1,2,0,True,False,False
134,2,2,135,compromise,A,R,A,target,4530.0,0.78,0.68,0.82,8,15,5,2,0,1,True,True,True
135,2,2,136,attraction,A,R,A,target,6750.0,0.72,0.62,0.7,8,15,7,2,1,0,False,True,True
136,2,2,137,attraction,B,L,A,competitor,7540.0,0.78,0.65,0.63,8,15,14,0,1,2,True,False,False
137,2,2,138,filler,,R,C,,3100.0,0.28,0.67,0.78,35,14,12,0,1,2,False,False,False
138,2,2,139,attraction,A,L,A,target,10430.0,0.72,0.65,0.7,7,14,6,0,1,2,False,True,False
139,2,2,140,compromise,B,R,A,competitor,4450.0,0.72,0.62,0.55,8,14,35,2,0,1,False,False,False
140,2,2,141,compromise,B,R,B,target,8380.0,0.72,0.68,0.52,8,15,35,1,2,0,True,False,True
141,2,2,142,attraction,A,R,A,target,5060.0,0.75,0.65,0.73,8,14,7,2,1,0,False,True,False
142,2,2,143,compromise,A,R,A,target,4480.0,0.75,0.62,0.88,8,15,4,2,1,0,False,True,True
143,2,2,144,compromise,A,R,A,target,7180.0,0.72,0.65,0.82,8,15,4,2,0,1,False,False,True
144,2,2,145,compromise,B,L,B,target,11760.0,0.72,0.68,0.58,8,14,35,1,0,2,False,False,True
145,2,2,146,attraction,B,R,A,competitor,10290.0,0.78,0.68,0.66,7,14,13,2,1,0,False,True,True
146,2,2,147,attraction,B,L,A,competitor,5570.0,0.72,0.62,0.6,7,15,14,0,2,1,True,False,True
147,2,2,148,compromise,B,R,A,competitor,4740.0,0.72,0.65,0.58,7,15,34,2,1,0,False,True,True
148,2,2,149,compromise,A,R,A,target,7940.0,0.75,0.65,0.85,8,15,5,2,1,0,True,True,False
149,2,2,150,filler,,M,C,,3110.0,0.32,0.48,0.85,31,20,11,0,2,1,True,True,True
150,2,3,151,compromise,B,L,B,target,4790.0,0.72,0.68,0.55,5,14,35,1,0,2,True,True,True
151,2,3,152,compromise,A,R,B,competitor,7980.0,0.78,0.65,0.82,6,14,3,1,2,0,True,True,True
152,2,3,153,compromise,B,L,A,competitor,5860.0,0.72,0.62,0.55,6,14,35,0,1,2,False,True,True
153,2,3,154,compromise,A,R,A,target,6710.0,0.78,0.68,0.85,5,15,3,2,0,1,True,True,True
154,2,3,155,compromise,A,M,C,decoy,10220.0,0.75,0.65,0.85,6,15,4,0,2,1,False,True,False
155,2,3,156,compromise,A,M,C,decoy,13480.0,0.75,0.68,0.88,5,15,4,2,0,1,False,False,True
156,2,3,157,compromise,A,L,A,target,7520.0,0.78,0.62,0.85,5,15,3,0,1,2,False,True,True
157,2,3,158,attraction,A,L,A,target,7440.0,0.78,0.62,0.76,5,15,4,0,2,1,False,False,True
158,2,3,159,filler,,M,C,,5040.0,0.19,0.56,0.8,52,17,12,2,0,1,True,False,False
159,2,3,160,compromise,B,M,A,competitor,5740.0,0.75,0.62,0.58,5,15,34,1,2,0,False,True,True
160,2,3,161,attraction,A,R,A,target,8540.0,0.75,0.65,0.73,6,14,5,2,1,0,False,True,True
161,2,3,162,compromise,B,M,B,target,6620.0,0.75,0.68,0.55,5,14,34,2,1,0,True,True,True
162,2,3,163,attraction,B,L,A,competitor,12010.0,0.78,0.65,0.63,6,15,14,0,1,2,False,False,True
163,2,3,164,filler,,R,C,,3270.0,0.24,0.37,0.76,41,27,13,0,1,2,False,False,False
164,2,3,165,compromise,A,L,C,decoy,8640.0,0.72,0.65,0.82,6,15,3,1,2,0,True,True,True
165,2,3,166,filler,,M,C,,6690.0,0.29,0.42,0.72,34,23,13,0,2,1,False,True,True
166,2,3,167,compromise,B,L,B,target,5900.0,0.72,0.65,0.52,6,15,34,1,0,2,True,False,True
167,2,3,168,compromise,A,L,A,target,7260.0,0.78,0.68,0.82,6,15,4,0,1,2,True,True,False
168,2,3,169,attraction,A,R,A,target,8000.0,0.75,0.65,0.73,6,14,5,2,0,1,False,False,True
169,2,3,170,compromise,A,R,C,decoy,7630.0,0.72,0.68,0.82,6,15,3,1,0,2,False,True,False
170,2,3,171,compromise,A,L,A,target,4820.0,0.75,0.62,0.88,6,15,3,0,1,2,False,True,True
171,2,3,172,attraction,B,L,A,competitor,4560.0,0.72,0.62,0.6,6,15,14,0,2,1,True,True,True
172,2,3,173,filler,,L,C,,6470.0,0.16,0.46,0.87,62,21,11,1,2,0,True,True,False
173,2,3,174,filler,,L,C,,2530.0,0.27,0.47,0.86,37,21,11,1,2,0,True,False,False
174,2,3,175,attraction,A,R,A,target,4400.0,0.78,0.62,0.76,6,14,5,2,1,0,True,False,True
175,2,3,176,filler,,L,C,,3310.0,0.19,0.59,0.81,52,16,12,2,1,0,True,True,True
176,2,3,177,attraction,B,R,A,competitor,6040.0,0.78,0.62,0.6,5,15,14,2,0,1,False,False,True
177,2,3,178,filler,,R,C,,2900.0,0.31,0.38,0.85,32,26,11,1,0,2,True,True,False
178,2,3,179,attraction,B,L,A,competitor,5480.0,0.78,0.62,0.6,6,15,14,0,2,1,False,False,False
179,2,3,180,filler,,L,C,,6120.0,0.28,0.67,0.78,35,14,12,1,2,0,True,True,False
180,2,3,181,attraction,B,L,A,competitor,5970.0,0.75,0.62,0.6,5,15,14,0,1,2,False,True,True
181,2,3,182,attraction,B,L,B,target,8770.0,0.72,0.62,0.6,5,15,14,2,0,1,False,True,True
182,2,3,183,attraction,B,L,B,target,6450.0,0.78,0.68,0.66,5,14,13,2,0,1,False,False,True
183,2,3,184,filler,,M,C,,4340.0,0.32,0.6,0.78,31,16,12,0,2,1,False,True,False
184,2,3,185,filler,,R,C,,3770.0,0.32,0.48,0.85,31,20,11,1,0,2,True,False,True
185,2,3,186,compromise,B,R,B,target,19740.0,0.75,0.65,0.55,6,14,34,0,2,1,True,False,True
186,2,3,187,attraction,A,M,A,target,5670.0,0.75,0.65,0.73,5,15,4,1,0,2,False,True,False
187,2,3,188,attraction,B,M,A,competitor,7210.0,0.78,0.62,0.6,5,14,13,1,2,0,True,False,False
188,2,3,189,attraction,B,M,B,target,7540.0,0.72,0.68,0.66,6,14,13,2,1,0,True,False,False
189,2,3,190,filler,,R,C,,4600.0,0.27,0.61,0.89,37,16,11,1,0,2,True,False,False
190,2,3,191,compromise,A,R,A,target,8080.0,0.75,0.62,0.88,5,15,4,2,0,1,False,True,False
191,2,3,192,attraction,A,M,B,competitor,6310.0,0.72,0.65,0.7,5,15,4,0,1,2,True,False,False
192,2,3,193,attraction,A,M,A,target,6290.0,0.72,0.62,0.7,6,15,5,1,2,0,False,False,False
193,2,3,194,attraction,A,M,B,competitor,6480.0,0.72,0.65,0.7,5,15,4,2,1,0,True,True,False
194,2,3,195,compromise,B,R,B,target,4080.0,0.72,0.68,0.52,6,15,35,0,2,1,False,False,False
195,2,3,196,compromise,B,L,B,target,7790.0,0.72,0.65,0.58,5,15,34,2,0,1,False,True,True
196,2,3,197,attraction,B,R,B,target,8970.0,0.75,0.68,0.66,5,14,13,0,2,1,True,False,False
197,2,3,198,attraction,B,R,B,target,8910.0,0.72,0.65,0.63,6,14,13,0,2,1,True,True,True
198,2,3,199,compromise,B,M,A,competitor,6040.0,0.78,0.62,0.55,6,14,35,1,2,0,True,True,True
199,2,3,200,compromise,A,R,A,target,6720.0,0.75,0.65,0.82,6,15,3,2,1,0,True,False,True
200,2,3,201,attraction,B,M,B,target,8140.000000000001,0.75,0.65,0.63,5,14,13,2,1,0,True,False,False
201,2,3,202,attraction,A,L,B,competitor,10230.0,0.72,0.65,0.7,6,15,5,2,0,1,False,True,False
202,2,3,203,attraction,A,M,A,target,6230.0,0.78,0.68,0.76,5,15,4,1,0,2,False,False,False
203,2,3,204,compromise,A,L,C,decoy,4990.0,0.78,0.68,0.88,5,15,4,1,2,0,True,True,True
204,2,3,205,compromise,B,R,A,competitor,5620.0,0.72,0.62,0.55,6,14,35,2,1,0,True,True,True
205,2,3,206,attraction,A,L,B,competitor,9930.0,0.72,0.68,0.7,5,14,4,1,0,2,False,True,True
206,2,3,207,attraction,A,M,A,target,13770.0,0.78,0.68,0.76,6,15,5,1,2,0,False,True,True
207,2,3,208,compromise,A,M,B,competitor,12010.0,0.72,0.68,0.82,6,15,3,0,1,2,True,True,True
208,2,3,209,compromise,A,L,B,competitor,15970.0,0.78,0.65,0.82,6,14,4,2,0,1,False,True,False
209,2,3,210,attraction,B,L,A,competitor,5890.0,0.72,0.62,0.6,6,14,13,0,2,1,True,True,False
210,2,3,211,attraction,A,R,B,competitor,14410.0,0.75,0.65,0.73,6,15,5,0,2,1,True,False,False
211,2,3,212,compromise,B,R,B,target,5260.0,0.78,0.65,0.52,6,14,34,1,2,0,False,True,True
212,2,3,213,compromise,B,L,A,competitor,5710.0,0.75,0.62,0.58,6,14,35,0,2,1,True,True,True
213,2,3,214,attraction,B,M,A,competitor,9010.0,0.78,0.65,0.63,6,15,14,1,2,0,True,False,False
214,2,3,215,compromise,A,M,B,competitor,7110.0,0.78,0.68,0.88,6,15,3,2,1,0,False,False,False
215,2,3,216,attraction,B,M,A,competitor,5840.0,0.72,0.62,0.6,6,15,14,1,2,0,True,True,True
216,2,3,217,compromise,B,R,B,target,6710.0,0.72,0.62,0.58,5,14,35,1,2,0,True,False,False
217,2,3,218,compromise,A,L,A,target,4810.0,0.78,0.62,0.85,6,14,3,0,2,1,False,True,True
218,2,3,219,compromise,B,R,B,target,5030.0,0.72,0.68,0.58,5,15,35,0,2,1,False,False,False
219,2,3,220,attraction,B,M,A,competitor,6610.0,0.78,0.65,0.63,5,15,14,1,0,2,True,True,False
220,2,3,221,compromise,B,L,B,target,6170.0,0.72,0.68,0.58,6,14,35,1,0,2,True,True,True
221,2,3,222,compromise,B,L,B,target,5260.0,0.72,0.65,0.55,5,15,35,1,0,2,True,True,True
222,2,3,223,attraction,A,L,B,competitor,8000.0,0.72,0.65,0.7,5,14,4,2,0,1,False,False,False
223,2,3,224,attraction,A,M,A,target,7590.0,0.75,0.65,0.73,6,15,5,1,2,0,True,False,False
224,2,3,225,attraction,A,M,B,competitor,6540.0,0.75,0.68,0.73,5,14,4,2,1,0,True,True,False
0,3,1,1,filler,,R,A,,9250.0,0.19,0.59,0.81,52,16,12,2,1,0,True,False,True
1,3,1,2,compromise,B,R,B,target,4380.0,0.72,0.68,0.58,11,15,22,0,2,1,False,False,False
2,3,1,3,attraction,B,L,A,competitor,4400.0,0.78,0.65,0.63,12,15,14,0,2,1,False,False,False
3,3,1,4,attraction,A,M,A,target,4090.0,0.75,0.65,0.73,12,15,11,1,0,2,True,True,True
4,3,1,5,compromise,B,L,A,competitor,5810.0,0.75,0.62,0.58,12,14,22,0,2,1,True,False,True
5,3,1,6,attraction,A,L,A,target,5440.0,0.75,0.65,0.73,12,14,11,0,2,1,True,True,True
6,3,1,7,attraction,B,R,A,competitor,3480.0,0.72,0.68,0.66,12,14,13,2,1,0,True,True,True
7,3,1,8,compromise,A,M,C,decoy,4400.0,0.78,0.62,0.85,11,15,9,0,2,1,True,True,False
8,3,1,9,compromise,A,M,B,competitor,4570.0,0.75,0.65,0.85,12,15,10,0,1,2,True,False,True
9,3,1,10,attraction,A,R,A,target,4940.0,0.75,0.65,0.73,12,15,11,2,1,0,True,False,False
10,3,1,11,filler,,M,C,,4950.0,0.24,0.37,0.76,41,27,13,0,2,1,True,False,False
11,3,1,12,filler,,M,A,,5740.0,0.19,0.56,0.8,52,17,12,1,2,0,False,True,True
12,3,1,13,compromise,A,L,C,decoy,5940.0,0.75,0.62,0.88,12,15,9,2,1,0,True,True,True
13,3,1,14,attraction,B,R,B,target,4050.0,0.78,0.68,0.66,11,14,13,0,2,1,True,True,False
14,3,1,15,compromise,A,M,C,decoy,4350.0,0.78,0.68,0.88,11,15,10,2,0,1,False,False,False
15,3,1,16,compromise,B,M,C,decoy,2670.0,0.72,0.65,0.55,11,15,22,2,0,1,False,False,False
16,3,1,17,compromise,B,L,B,target,5270.0,0.72,0.65,0.52,12,15,21,2,0,1,True,True,True
17,3,1,18,filler,,M,C,,4520.0,0.32,0.48,0.85,31,20,11,2,0,1,False,False,True
18,3,1,19,compromise,A,R,A,target,6410.0,0.72,0.68,0.82,12,15,9,2,1,0,False,True,True
19,3,1,20,attraction,A,M,A,target,6100.0,0.72,0.65,0.7,11,14,10,1,0,2,False,False,False
20,3,1,21,compromise,A,R,C,decoy,4660.0,0.75,0.65,0.82,12,15,9,1,0,2,True,False,True
21,3,1,22,compromise,B,M,A,competitor,3870.0,0.72,0.62,0.55,12,14,22,1,0,2,False,True,True
22,3,1,23,compromise,A,R,C,decoy,3030.0,0.75,0.68,0.88,11,15,10,1,0,2,False,False,True
23,3,1,24,compromise,A,L,C,decoy,4310.0,0.78,0.68,0.82,12,15,10,1,2,0,True,True,False
24,3,1,25,attraction,B,L,A,competitor,5320.0,0.75,0.65,0.63,11,14,13,0,1,2,True,False,False
25,3,1,26,attraction,A,L,A,target,2620.0,0.78,0.68,0.76,11,15,10,0,2,1,False,True,True
26,3,1,27,attraction,A,L,A,target,3600.0,0.72,0.62,0.7,12,15,11,0,1,2,True,False,True
27,3,1,28,attraction,A,L,A,target,3730.0,0.75,0.65,0.73,12,14,11,0,1,2,True,True,True
28,3,1,29,compromise,A,R,C,decoy,3550.0,0.75,0.62,0.88,11,15,10,1,0,2,False,True,True
29,3,1,30,compromise,B,M,A,competitor,4380.0,0.72,0.62,0.55,12,14,22,1,2,0,False,False,True
30,3,1,31,compromise,A,R,C,decoy,5470.0,0.78,0.68,0.85,11,15,9,1,0,2,False,False,False
31,3,1,32,compromise,A,L,C,decoy,6250.0,0.78,0.62,0.85,12,14,9,1,2,0,True,False,True
32,3,1,33,compromise,B,L,A,competitor,2490.0,0.78,0.62,0.55,12,14,22,0,1,2,False,True,False
33,3,1,34,attraction,B,L,A,competitor,3890.0,0.75,0.62,0.6,11,15,14,0,2,1,True,False,False
34,3,1,35,compromise,B,R,A,competitor,3680.0,0.75,0.68,0.55,11,14,21,2,0,1,False,True,True
35,3,1,36,attraction,A,R,B,competitor,3090.0,0.75,0.68,0.73,11,14,10,1,2,0,False,False,False
36,3,1,37,filler,,L,B,,5340.0,0.32,0.6,0.78,31,16,12,1,0,2,True,True,True
37,3,1,38,attraction,B,L,A,competitor,4680.0,0.75,0.68,0.66,11,14,13,0,1,2,True,False,False
38,3,1,39,attraction,B,L,A,competitor,2660.0,0.78,0.62,0.6,11,15,14,0,1,2,True,True,False
39,3,1,40,compromise,B,R,C,decoy,3380.0,0.75,0.65,0.55,12,14,21,0,1,2,False,True,True
40,3,1,41,compromise,B,R,A,competitor,5870.0,0.72,0.62,0.58,11,14,22,2,0,1,False,True,True
41,3,1,42,compromise,B,M,A,competitor,4520.0,0.78,0.65,0.52,12,14,21,1,0,2,True,True,False
42,3,1,43,filler,,M,C,,6040.0,0.27,0.47,0.86,37,21,11,0,2,1,False,True,False
43,3,1,44,compromise,B,M,B,target,6540.0,0.72,0.68,0.52,12,15,22,0,1,2,True,True,False
44,3,1,45,compromise,A,M,C,decoy,4080.0,0.72,0.68,0.82,12,15,9,2,0,1,False,False,True
45,3,1,46,compromise,A,L,C,decoy,4180.0,0.72,0.65,0.82,12,15,9,2,1,0,True,False,False
46,3,1,47,attraction,B,M,A,competitor,5820.0,0.72,0.62,0.6,11,15,14,1,0,2,True,False,False
47,3,1,48,filler,,L,C,,4940.0,0.28,0.67,0.78,35,14,12,1,2,0,True,True,False
48,3,1,49,attraction,A,L,A,target,3230.0,0.72,0.65,0.7,11,15,10,0,1,2,False,True,False
49,3,1,50,attraction,B,L,A,competitor,2600.0,0.72,0.62,0.6,12,15,14,0,1,2,False,True,True
50,3,1,51,attraction,A,R,A,target,5910.0,0.78,0.62,0.76,12,14,11,2,1,0,False,False,False
51,3,1,52,attraction,A,M,A,target,5300.0,0.75,0.65,0.73,11,15,10,1,0,2,False,False,True
52,3,1,53,attraction,B,M,A,competitor,2930.0,0.78,0.65,0.63,11,15,14,1,0,2,True,False,False
53,3,1,54,compromise,A,R,C,decoy,3960.0,0.78,0.65,0.82,12,14,10,0,1,2,False,False,False
54,3,1,55,attraction,B,M,A,competitor,4730.0,0.72,0.62,0.6,12,14,13,1,0,2,False,True,False
55,3,1,56,attraction,A,M,B,competitor,4360.0,0.72,0.68,0.7,11,14,10,0,1,2,False,False,False
56,3,1,57,compromise,B,L,C,decoy,1710.0,0.72,0.68,0.58,12,14,22,1,2,0,True,False,False
57,3,1,58,attraction,B,M,B,target,2460.0,0.78,0.62,0.6,11,14,13,0,1,2,True,False,True
58,3,1,59,attraction,B,L,A,competitor,2220.0,0.72,0.65,0.63,12,14,13,0,2,1,True,True,True
59,3,1,60,attraction,A,M,A,target,3850.0,0.72,0.65,0.7,11,15,10,1,0,2,False,True,False
60,3,1,61,compromise,B,M,C,decoy,4500.0,0.72,0.65,0.58,11,15,21,2,0,1,False,True,True
61,3,1,62,filler,,L,C,,2970.0,0.29,0.42,0.72,34,23,13,2,1,0,True,False,False
62,3,1,63,filler,,M,C,,2310.0,0.31,0.38,0.85,32,26,11,2,0,1,True,True,True
63,3,1,64,attraction,A,R,A,target,3510.0,0.78,0.62,0.76,11,15,10,2,1,0,False,False,False
64,3,1,65,filler,,L,A,,3680.0,0.16,0.46,0.87,62,21,11,0,1,2,False,False,False
65,3,1,66,attraction,B,R,B,target,6350.0,0.72,0.62,0.6,12,15,14,1,2,0,True,False,True
66,3,1,67,attraction,B,M,A,competitor,3590.0,0.78,0.62,0.6,12,15,14,1,0,2,False,True,True
67,3,1,68,attraction,B,M,A,competitor,2740.0,0.78,0.65,0.63,12,15,14,1,0,2,True,True,True
68,3,1,69,compromise,A,M,C,decoy,2960.0,0.78,0.68,0.88,12,15,9,0,2,1,False,False,True
69,3,1,70,attraction,A,L,A,target,2990.0,0.78,0.68,0.76,12,15,11,0,1,2,True,True,True
70,3,1,71,compromise,B,R,A,competitor,2280.0,0.75,0.62,0.58,11,15,21,2,0,1,True,True,True
71,3,1,72,compromise,B,R,A,competitor,3460.0,0.72,0.68,0.55,11,14,22,2,1,0,False,False,True
72,3,1,73,filler,,M,C,,4500.0,0.27,0.61,0.89,37,16,11,2,0,1,False,False,False
73,3,1,74,compromise,A,M,C,decoy,7130.0,0.78,0.65,0.82,12,14,9,0,2,1,True,False,True
74,3,1,75,attraction,A,R,A,target,2940.0,0.72,0.65,0.7,12,15,11,2,0,1,False,True,True
75,3,2,76,filler,,M,C,,7560.0,0.16,0.46,0.87,62,21,11,0,2,1,True,True,True
76,3,2,77,attraction,B,L,A,competitor,2610.0,0.78,0.65,0.63,12,15,14,0,1,2,True,True,True
77,3,2,78,attraction,B,M,B,target,4210.0,0.72,0.62,0.6,11,15,14,2,1,0,True,True,True
78,3,2,79,compromise,A,L,C,decoy,4710.0,0.75,0.68,0.88,11,15,9,2,1,0,False,True,True
79,3,2,80,compromise,B,M,A,competitor,10120.0,0.75,0.62,0.58,11,15,19,1,2,0,True,False,True
80,3,2,81,attraction,A,L,B,competitor,5020.0,0.72,0.62,0.7,12,15,11,2,0,1,True,False,True
81,3,2,82,filler,,R,C,,3140.0,0.32,0.48,0.85,31,20,11,0,1,2,True,False,True
82,3,2,83,attraction,A,R,B,competitor,3140.0,0.75,0.68,0.73,11,14,10,0,2,1,True,True,True
83,3,2,84,attraction,A,M,A,target,3700.0,0.75,0.65,0.73,12,15,11,1,0,2,True,False,True
84,3,2,85,attraction,B,M,A,competitor,5050.0,0.72,0.62,0.6,12,15,14,1,0,2,False,True,False
85,3,2,86,compromise,A,L,C,decoy,2790.0,0.78,0.68,0.88,12,15,8,2,1,0,False,False,False
86,3,2,87,attraction,A,M,A,target,4330.0,0.78,0.62,0.76,11,15,10,1,2,0,True,True,True
87,3,2,88,compromise,A,R,A,target,2800.0,0.78,0.65,0.82,12,14,8,2,1,0,False,False,False
88,3,2,89,filler,,R,C,,4010.0,0.27,0.47,0.86,37,21,11,1,0,2,False,False,True
89,3,2,90,filler,,R,A,,2090.0,0.19,0.56,0.8,52,17,12,2,1,0,False,True,False
90,3,2,91,compromise,A,R,A,target,4160.0,0.78,0.68,0.85,11,15,8,2,0,1,False,True,True
91,3,2,92,compromise,B,R,A,competitor,3280.0,0.72,0.62,0.58,11,14,20,2,0,1,False,False,False
92,3,2,93,attraction,B,R,C,decoy,2540.0,0.72,0.65,0.63,12,14,13,1,0,2,True,True,False
93,3,2,94,compromise,B,L,B,target,2790.0,0.75,0.68,0.55,11,14,19,2,0,1,False,True,True
94,3,2,95,compromise,B,L,A,competitor,3990.0,0.72,0.68,0.58,11,15,20,0,2,1,False,False,False
95,3,2,96,compromise,B,R,A,competitor,2330.0,0.78,0.62,0.55,12,14,20,2,1,0,True,False,False
96,3,2,97,compromise,A,R,B,competitor,2820.0,0.72,0.65,0.82,12,15,8,1,2,0,True,True,False
97,3,2,98,attraction,A,L,A,target,2980.0,0.78,0.62,0.76,12,14,11,0,2,1,False,False,True
98,3,2,99,attraction,B,R,A,competitor,1790.0,0.72,0.62,0.6,12,14,13,2,1,0,False,True,False
99,3,2,100,attraction,B,R,A,competitor,2070.0,0.78,0.68,0.66,11,14,13,2,0,1,True,False,True
100,3,2,101,attraction,A,M,A,target,2380.0,0.72,0.65,0.7,11,15,10,1,2,0,False,True,True
101,3,2,102,attraction,A,R,A,target,1520.0,0.72,0.65,0.7,11,15,10,2,1,0,False,True,False
102,3,2,103,filler,,R,A,,1860.0,0.28,0.67,0.78,35,14,12,2,1,0,True,True,True
103,3,2,104,compromise,A,M,C,decoy,3630.0,0.78,0.62,0.85,11,15,8,2,0,1,False,False,True
104,3,2,105,compromise,A,L,C,decoy,2550.0,0.78,0.68,0.82,12,15,9,1,2,0,False,False,True
105,3,2,106,compromise,B,L,A,competitor,2480.0,0.72,0.65,0.58,11,15,19,0,1,2,False,True,True
106,3,2,107,compromise,B,M,A,competitor,3160.0,0.72,0.62,0.55,12,14,20,1,2,0,False,True,False
107,3,2,108,compromise,B,R,B,target,4460.0,0.72,0.68,0.52,12,15,20,0,2,1,False,False,False
108,3,2,109,attraction,B,R,A,competitor,3860.0,0.78,0.65,0.63,11,15,14,2,0,1,False,True,False
109,3,2,110,attraction,A,L,A,target,3960.0,0.72,0.65,0.7,12,15,11,0,1,2,False,False,False
110,3,2,111,filler,,R,C,,3340.0,0.19,0.59,0.81,52,16,12,1,0,2,True,False,False
111,3,2,112,attraction,B,L,A,competitor,4860.0,0.78,0.62,0.6,11,15,14,0,2,1,True,True,True
112,3,2,113,attraction,A,L,A,target,7850.0,0.78,0.68,0.76,11,15,10,0,1,2,False,True,False
113,3,2,114,attraction,A,R,A,target,6100.0,0.72,0.68,0.7,11,14,10,2,1,0,False,False,True
114,3,2,115,attraction,B,L,A,competitor,2540.0,0.75,0.62,0.6,11,15,14,0,1,2,True,False,True
115,3,2,116,compromise,B,L,A,competitor,2750.0,0.78,0.65,0.52,12,14,19,0,2,1,False,True,True
116,3,2,117,attraction,B,L,A,competitor,2580.0,0.72,0.62,0.6,12,15,14,0,2,1,False,True,True
117,3,2,118,attraction,A,R,A,target,2060.0,0.75,0.65,0.73,12,14,11,2,0,1,True,True,True
118,3,2,119,filler,,M,C,,2430.0,0.27,0.61,0.89,37,16,11,0,2,1,True,True,True
119,3,2,120,compromise,B,L,B,target,3060.0,0.72,0.65,0.52,12,15,19,1,0,2,True,False,False
120,3,2,121,compromise,A,R,C,decoy,3540.0,0.72,0.68,0.82,12,15,8,0,1,2,False,False,False
121,3,2,122,compromise,B,L,B,target,2330.0,0.75,0.62,0.58,12,14,20,2,0,1,False,False,False
122,3,2,123,attraction,A,R,C,decoy,2710.0,0.75,0.65,0.73,12,14,11,0,1,2,True,False,False
123,3,2,124,attraction,B,M,A,competitor,3000.0,0.78,0.65,0.63,12,15,14,1,0,2,False,True,True
124,3,2,125,compromise,A,R,C,decoy,2940.0,0.78,0.62,0.85,12,14,8,0,1,2,True,False,False
125,3,2,126,compromise,B,M,A,competitor,2640.0,0.72,0.68,0.55,11,14,20,1,2,0,True,True,False
126,3,2,127,compromise,A,R,A,target,3140.0,0.72,0.68,0.82,12,15,8,2,1,0,True,True,False
127,3,2,128,attraction,B,R,C,decoy,1750.0,0.72,0.68,0.66,12,14,13,1,0,2,True,False,False
128,3,2,129,filler,,L,A,,1710.0,0.32,0.6,0.78,31,16,12,0,2,1,False,False,True
129,3,2,130,attraction,B,L,B,target,2210.0,0.78,0.62,0.6,11,14,13,1,0,2,True,True,False
130,3,2,131,compromise,B,L,A,competitor,2220.0,0.75,0.65,0.55,12,14,19,0,2,1,False,False,False
131,3,2,132,attraction,A,L,A,target,2320.0,0.75,0.65,0.73,11,15,10,0,1,2,True,True,False
132,3,2,133,filler,,L,C,,2880.0,0.29,0.42,0.72,34,23,13,1,2,0,True,True,True
133,3,2,134,compromise,A,R,C,decoy,2300.0,0.75,0.62,0.88,12,15,8,1,0,2,False,True,True
134,3,2,135,filler,,R,A,,3270.0,0.24,0.37,0.76,41,27,13,2,1,0,False,False,True
135,3,2,136,compromise,A,R,C,decoy,2540.0,0.78,0.65,0.82,12,14,9,0,1,2,True,True,True
136,3,2,137,compromise,A,R,C,decoy,2230.0,0.75,0.65,0.82,12,15,8,0,1,2,False,False,True
137,3,2,138,compromise,A,L,C,decoy,2610.0,0.75,0.62,0.88,11,15,9,2,1,0,False,False,False
138,3,2,139,attraction,A,R,B,competitor,2070.0,0.75,0.65,0.73,12,15,11,1,2,0,True,False,False
139,3,2,140,attraction,B,R,A,competitor,2190.0,0.75,0.65,0.63,11,14,13,2,0,1,True,True,True
140,3,2,141,compromise,B,M,B,target,3120.0,0.72,0.68,0.58,12,14,20,2,1,0,False,True,True
141,3,2,142,filler,,R,C,,3430.0,0.31,0.38,0.85,32,26,11,0,1,2,True,False,False
142,3,2,143,compromise,B,L,A,competitor,2009.9999999999998,0.72,0.65,0.55,11,15,20,0,1,2,False,False,False
143,3,2,144,attraction,A,L,A,target,2460.0,0.78,0.68,0.76,12,15,11,0,1,2,False,True,False
144,3,2,145,compromise,B,R,A,competitor,2170.0,0.72,0.62,0.55,12,14,20,2,0,1,False,False,False
145,3,2,146,attraction,B,M,A,competitor,4350.0,0.78,0.62,0.6,12,15,14,1,2,0,True,False,True
146,3,2,147,compromise,A,L,C,decoy,2450.0,0.75,0.65,0.85,12,15,9,2,1,0,False,True,False
147,3,2,148,attraction,B,M,B,target,2800.0,0.75,0.68,0.66,11,14,13,2,1,0,False,True,True
148,3,2,149,attraction,A,M,C,decoy,2600.0,0.72,0.65,0.7,11,14,10,2,0,1,False,False,True
149,3,2,150,compromise,A,R,C,decoy,2810.0,0.78,0.68,0.88,11,15,9,1,0,2,False,False,True
150,3,3,151,filler,,L,C,,3370.0,0.16,0.46,0.87,62,21,11,2,1,0,False,False,False
151,3,3,152,attraction,A,R,B,competitor,4120.0,0.75,0.65,0.73,6,15,5,0,2,1,True,False,False
152,3,3,153,attraction,B,R,B,target,4270.0,0.78,0.65,0.63,7,15,14,0,2,1,True,False,False
153,3,3,154,attraction,A,R,A,target,4350.0,0.75,0.65,0.73,7,14,6,2,0,1,False,True,False
154,3,3,155,attraction,B,M,A,competitor,2320.0,0.75,0.65,0.63,6,14,13,1,0,2,True,True,False
155,3,3,156,attraction,B,M,B,target,4500.0,0.78,0.65,0.63,6,15,14,2,1,0,True,True,True
156,3,3,157,attraction,A,R,B,competitor,2090.0,0.72,0.68,0.7,6,14,5,1,2,0,True,True,True
157,3,3,158,filler,,R,C,,3630.0,0.28,0.67,0.78,35,14,12,1,0,2,True,True,True
158,3,3,159,filler,,L,C,,2330.0,0.29,0.42,0.72,34,23,13,1,2,0,True,True,True
159,3,3,160,attraction,A,M,B,competitor,3980.0,0.75,0.65,0.73,7,15,6,0,1,2,False,True,True
160,3,3,161,attraction,B,L,B,target,4059.9999999999995,0.72,0.62,0.6,7,14,13,2,0,1,True,True,True
161,3,3,162,filler,,M,C,,4290.0,0.19,0.56,0.8,52,17,12,0,2,1,False,True,False
162,3,3,163,attraction,B,L,B,target,4740.0,0.78,0.68,0.66,6,14,13,2,0,1,False,False,True
163,3,3,164,compromise,B,M,B,target,6520.0,0.75,0.62,0.58,6,15,24,0,1,2,False,True,True
164,3,3,165,compromise,A,R,B,competitor,4450.0,0.78,0.62,0.85,7,14,4,0,2,1,False,False,True
165,3,3,166,compromise,A,L,B,competitor,2530.0,0.78,0.68,0.88,6,15,5,2,0,1,True,False,False
166,3,3,167,attraction,B,R,B,target,3460.0,0.75,0.68,0.66,6,14,13,1,2,0,False,True,True
167,3,3,168,attraction,A,M,B,competitor,3160.0,0.72,0.65,0.7,6,14,5,2,1,0,False,True,True
168,3,3,169,compromise,A,M,B,competitor,1550.0,0.78,0.62,0.85,6,15,4,2,1,0,True,True,True
169,3,3,170,compromise,B,R,C,decoy,4650.0,0.72,0.62,0.55,7,14,25,0,1,2,False,False,True
170,3,3,171,compromise,B,M,B,target,4580.0,0.72,0.68,0.55,6,14,25,0,1,2,False,False,False
171,3,3,172,compromise,B,L,C,decoy,6040.0,0.72,0.62,0.58,6,14,25,1,2,0,True,True,True
172,3,3,173,attraction,A,R,B,competitor,2070.0,0.78,0.62,0.76,6,15,5,0,2,1,False,True,True
173,3,3,174,compromise,B,L,B,target,5660.0,0.72,0.68,0.52,7,15,25,1,0,2,True,False,True
174,3,3,175,compromise,A,M,B,competitor,2580.0,0.75,0.68,0.88,6,15,5,0,1,2,True,True,False
175,3,3,176,attraction,A,L,B,competitor,2440.0,0.72,0.65,0.7,6,15,5,2,0,1,False,False,True
176,3,3,177,attraction,B,L,B,target,3480.0,0.78,0.62,0.6,6,14,13,1,0,2,False,True,False
177,3,3,178,compromise,A,M,B,competitor,2190.0,0.75,0.65,0.85,7,15,5,0,1,2,False,True,True
178,3,3,179,compromise,B,R,B,target,5110.0,0.78,0.65,0.52,7,14,24,0,2,1,True,True,True
179,3,3,180,attraction,A,R,B,competitor,1790.0,0.72,0.65,0.7,6,15,5,1,2,0,True,True,False
180,3,3,181,attraction,B,R,B,target,3260.0,0.72,0.62,0.6,7,15,14,1,2,0,True,False,False
181,3,3,182,compromise,A,M,B,competitor,2720.0,0.72,0.68,0.82,7,15,4,2,1,0,True,False,True
182,3,3,183,compromise,B,M,B,target,7540.0,0.72,0.65,0.58,6,15,24,2,1,0,True,True,True
183,3,3,184,filler,,M,C,,4130.0,0.27,0.47,0.86,37,21,11,2,0,1,False,False,True
184,3,3,185,attraction,B,L,B,target,5540.0,0.78,0.65,0.63,7,15,14,1,0,2,True,True,False
185,3,3,186,compromise,A,R,B,competitor,2170.0,0.78,0.65,0.82,7,14,5,0,2,1,False,False,False
186,3,3,187,compromise,B,L,C,decoy,4150.0,0.72,0.68,0.58,6,15,25,1,2,0,True,True,False
187,3,3,188,filler,,R,C,,3260.0,0.32,0.48,0.85,31,20,11,0,1,2,False,True,True
188,3,3,189,compromise,B,L,B,target,6700.0,0.72,0.68,0.58,7,14,25,2,0,1,False,True,True
189,3,3,190,attraction,B,L,B,target,6030.0,0.72,0.65,0.63,7,14,13,2,0,1,False,False,True
190,3,3,191,attraction,A,R,B,competitor,2470.0,0.78,0.68,0.76,7,15,6,0,2,1,False,True,False
191,3,3,192,compromise,A,L,B,competitor,1660.0,0.75,0.62,0.88,6,15,5,1,0,2,True,False,True
192,3,3,193,attraction,B,R,B,target,2040.0,0.72,0.62,0.6,7,15,14,0,2,1,True,False,True
193,3,3,194,compromise,A,L,B,competitor,1730.0,0.75,0.65,0.82,7,15,4,1,0,2,False,True,False
194,3,3,195,compromise,A,R,B,competitor,1200.0,0.78,0.68,0.85,6,15,4,1,2,0,True,False,False
195,3,3,196,attraction,B,R,A,competitor,2810.0,0.75,0.62,0.6,6,15,14,2,1,0,True,False,False
196,3,3,197,compromise,B,R,C,decoy,8850.0,0.72,0.62,0.55,7,14,25,1,0,2,True,False,False
197,3,3,198,attraction,B,L,B,target,4059.9999999999995,0.72,0.68,0.66,7,14,13,2,0,1,False,True,False
198,3,3,199,attraction,B,R,C,decoy,4990.0,0.78,0.62,0.6,7,15,14,0,1,2,True,False,False
199,3,3,200,attraction,A,R,B,competitor,2009.9999999999998,0.78,0.62,0.76,7,14,6,1,2,0,False,False,False
200,3,3,201,compromise,B,M,B,target,4680.0,0.75,0.68,0.55,6,14,24,2,1,0,True,True,False
201,3,3,202,compromise,B,R,B,target,6220.0,0.75,0.65,0.55,7,14,24,0,2,1,False,False,False
202,3,3,203,attraction,A,L,B,competitor,1730.0,0.72,0.65,0.7,7,15,6,2,0,1,False,True,True
203,3,3,204,compromise,B,M,C,decoy,2660.0,0.75,0.62,0.58,7,14,25,0,2,1,True,False,False
204,3,3,205,compromise,B,M,C,decoy,2550.0,0.78,0.62,0.55,7,14,25,0,2,1,True,True,True
205,3,3,206,attraction,A,R,B,competitor,2540.0,0.75,0.68,0.73,6,14,5,1,2,0,True,True,True
206,3,3,207,filler,,L,C,,4890.0,0.19,0.59,0.81,52,16,12,2,1,0,True,False,True
207,3,3,208,compromise,B,M,B,target,2930.0,0.72,0.65,0.55,6,15,25,2,1,0,True,False,False
208,3,3,209,attraction,A,L,B,competitor,6650.0,0.72,0.62,0.7,7,15,6,2,0,1,False,True,False
209,3,3,210,compromise,A,L,B,competitor,2100.0,0.75,0.62,0.88,7,15,4,1,0,2,False,False,False
210,3,3,211,compromise,A,R,B,competitor,1370.0,0.72,0.65,0.82,7,15,4,1,2,0,True,True,True
211,3,3,212,attraction,B,M,B,target,2360.0,0.78,0.62,0.6,6,15,14,2,1,0,True,True,True
212,3,3,213,attraction,A,L,B,competitor,4160.0,0.78,0.68,0.76,6,15,5,1,0,2,False,True,True
213,3,3,214,compromise,B,R,B,target,3630.0,0.72,0.65,0.52,7,15,24,1,2,0,False,True,True
214,3,3,215,filler,,R,C,,4220.0,0.32,0.6,0.78,31,16,12,0,1,2,True,True,True
215,3,3,216,attraction,A,L,B,competitor,4520.0,0.75,0.65,0.73,7,15,6,2,0,1,False,True,False
216,3,3,217,attraction,B,R,B,target,2050.0,0.72,0.62,0.6,6,15,14,0,2,1,True,True,False
217,3,3,218,compromise,A,R,B,competitor,2320.0,0.78,0.68,0.88,7,15,4,0,2,1,True,False,False
218,3,3,219,compromise,A,R,B,competitor,1850.0,0.72,0.68,0.82,7,15,4,1,2,0,False,True,True
219,3,3,220,filler,,R,B,,5360.0,0.31,0.38,0.85,32,26,11,0,2,1,True,True,True
220,3,3,221,filler,,L,C,,4980.0,0.24,0.37,0.76,41,27,13,1,2,0,True,False,False
221,3,3,222,compromise,A,M,B,competitor,2060.0,0.78,0.65,0.82,7,14,4,2,1,0,False,False,False
222,3,3,223,attraction,A,R,B,competitor,2580.0,0.75,0.65,0.73,7,14,6,1,2,0,True,True,True
223,3,3,224,compromise,A,R,B,competitor,2009.9999999999998,0.78,0.68,0.82,7,15,5,1,2,0,True,False,False
224,3,3,225,filler,,M,C,,4480.0,0.27,0.61,0.89,37,16,11,0,2,1,False,True,True
0,4,1,1,attraction,B,M,A,competitor,13810.0,0.78,0.62,0.6,10,15,14,1,0,2,True,True,True
1,4,1,2,compromise,A,R,B,competitor,10600.0,0.78,0.65,0.82,10,14,7,0,2,1,True,False,True
2,4,1,3,attraction,A,L,A,target,6100.0,0.78,0.68,0.76,10,15,9,0,2,1,True,True,True
3,4,1,4,compromise,B,M,B,target,12130.0,0.72,0.65,0.58,9,15,21,2,1,0,True,True,True
4,4,1,5,attraction,B,R,B,target,13240.0,0.78,0.65,0.63,10,15,14,0,2,1,True,True,False
5,4,1,6,attraction,B,M,B,target,13710.0,0.78,0.62,0.6,9,15,14,0,1,2,True,False,True
6,4,1,7,attraction,B,M,B,target,7740.0,0.72,0.62,0.6,9,15,14,2,1,0,True,False,False
7,4,1,8,compromise,A,R,B,competitor,11270.0,0.78,0.68,0.85,9,15,7,0,2,1,True,False,False
8,4,1,9,filler,,L,C,,13350.0,0.31,0.38,0.85,32,26,11,1,2,0,False,True,True
9,4,1,10,compromise,B,R,A,competitor,7290.0,0.75,0.68,0.55,9,14,21,2,1,0,True,True,True
10,4,1,11,compromise,B,M,C,decoy,4650.0,0.72,0.62,0.58,9,14,22,0,2,1,True,True,False
11,4,1,12,compromise,B,L,B,target,8600.0,0.72,0.68,0.55,9,14,22,2,0,1,False,False,False
12,4,1,13,filler,,M,C,,18470.0,0.32,0.48,0.85,31,20,11,2,0,1,False,False,False
13,4,1,14,attraction,B,L,B,target,11120.0,0.75,0.65,0.63,9,14,13,2,0,1,True,True,True
14,4,1,15,attraction,B,M,C,decoy,9180.0,0.75,0.68,0.66,9,14,13,2,0,1,False,False,True
15,4,1,16,attraction,A,R,A,target,13500.0,0.78,0.62,0.76,9,15,8,2,1,0,False,True,True
16,4,1,17,compromise,A,M,A,target,13000.0,0.75,0.65,0.85,10,15,8,1,0,2,False,False,False
17,4,1,18,compromise,A,L,B,competitor,15030.0,0.72,0.68,0.82,10,15,7,1,0,2,True,False,True
18,4,1,19,attraction,B,L,B,target,10730.0,0.72,0.65,0.63,10,14,13,1,0,2,False,True,True
19,4,1,20,compromise,B,R,C,decoy,6740.0,0.72,0.68,0.52,10,15,22,1,0,2,False,False,True
20,4,1,21,compromise,A,M,A,target,8060.000000000001,0.75,0.62,0.88,10,15,7,1,2,0,True,True,False
21,4,1,22,attraction,A,L,A,target,9560.0,0.72,0.65,0.7,10,15,9,0,1,2,True,False,False
22,4,1,23,compromise,B,R,B,target,16350.000000000002,0.72,0.65,0.52,10,15,21,0,2,1,False,True,True
23,4,1,24,compromise,B,R,C,decoy,6910.0,0.75,0.62,0.58,10,14,22,0,1,2,True,False,True
24,4,1,25,compromise,B,R,C,decoy,8010.0,0.75,0.65,0.55,10,14,21,0,1,2,True,True,True
25,4,1,26,compromise,A,M,A,target,4850.0,0.75,0.65,0.82,10,15,7,1,0,2,False,True,True
26,4,1,27,attraction,B,M,A,competitor,10180.0,0.78,0.62,0.6,9,14,13,1,2,0,False,False,True
27,4,1,28,attraction,A,M,A,target,8250.0,0.72,0.65,0.7,9,14,8,1,0,2,False,False,False
28,4,1,29,compromise,A,M,A,target,5660.0,0.72,0.68,0.82,10,15,7,1,2,0,True,False,True
29,4,1,30,compromise,A,R,C,decoy,7990.0,0.75,0.68,0.88,9,15,8,0,1,2,False,True,False
30,4,1,31,attraction,B,L,A,competitor,10330.0,0.72,0.62,0.6,10,15,14,0,2,1,True,False,False
31,4,1,32,attraction,A,R,A,target,6440.0,0.75,0.68,0.73,9,14,8,2,0,1,False,True,True
32,4,1,33,attraction,A,M,A,target,3360.0,0.75,0.65,0.73,10,14,9,1,2,0,False,False,False
33,4,1,34,attraction,B,M,A,competitor,4120.0,0.78,0.65,0.63,10,15,14,1,0,2,True,True,True
34,4,1,35,filler,,M,B,,10420.0,0.19,0.59,0.81,52,16,12,0,1,2,True,False,False
35,4,1,36,compromise,A,R,C,decoy,11410.0,0.78,0.68,0.88,9,15,8,0,1,2,True,True,False
36,4,1,37,filler,,M,B,,9110.0,0.28,0.67,0.78,35,14,12,0,1,2,False,True,True
37,4,1,38,compromise,A,R,A,target,8050.000000000001,0.78,0.65,0.82,10,14,8,2,0,1,False,True,True
38,4,1,39,attraction,B,R,C,decoy,9190.0,0.72,0.62,0.6,10,15,14,1,0,2,True,True,False
39,4,1,40,compromise,A,L,A,target,5890.0,0.75,0.62,0.88,9,15,8,0,2,1,False,True,False
40,4,1,41,attraction,A,L,A,target,5230.0,0.75,0.65,0.73,9,15,8,0,1,2,True,True,False
41,4,1,42,attraction,A,R,A,target,4880.0,0.75,0.65,0.73,10,15,9,2,0,1,False,False,True
42,4,1,43,compromise,A,R,A,target,2390.0,0.78,0.68,0.82,10,15,8,2,1,0,True,False,False
43,4,1,44,filler,,R,C,,6290.0,0.24,0.37,0.76,41,27,13,1,0,2,True,False,False
44,4,1,45,compromise,B,R,B,target,9050.0,0.72,0.65,0.55,9,15,22,1,2,0,True,True,False
45,4,1,46,filler,,R,C,,7070.0,0.16,0.46,0.87,62,21,11,0,1,2,False,True,False
46,4,1,47,compromise,B,L,A,competitor,7800.0,0.72,0.62,0.55,10,14,22,0,1,2,False,True,True
47,4,1,48,compromise,B,R,A,competitor,9370.0,0.78,0.62,0.55,10,14,22,2,1,0,False,False,False
48,4,1,49,attraction,B,L,B,target,8610.0,0.75,0.62,0.6,9,15,14,1,0,2,False,False,True
49,4,1,50,attraction,A,M,A,target,4870.0,0.75,0.65,0.73,10,15,9,1,0,2,True,False,False
50,4,1,51,attraction,B,M,B,target,6870.0,0.78,0.68,0.66,9,14,13,0,1,2,False,False,False
51,4,1,52,attraction,A,M,A,target,10220.0,0.78,0.62,0.76,10,14,9,1,0,2,False,True,False
52,4,1,53,compromise,B,M,B,target,8490.0,0.78,0.65,0.52,10,14,21,0,1,2,False,False,False
53,4,1,54,filler,,R,B,,18150.0,0.19,0.56,0.8,52,17,12,1,2,0,True,False,False
54,4,1,55,compromise,A,M,B,competitor,8060.000000000001,0.78,0.62,0.85,9,15,7,0,1,2,True,False,True
55,4,1,56,attraction,A,R,B,competitor,4160.0,0.72,0.65,0.7,9,15,8,0,2,1,True,True,True
56,4,1,57,attraction,A,L,B,competitor,6700.0,0.72,0.65,0.7,9,15,8,1,0,2,False,True,False
57,4,1,58,compromise,B,L,B,target,10310.0,0.72,0.68,0.58,10,14,22,2,0,1,False,True,True
58,4,1,59,filler,,M,B,,9360.0,0.27,0.61,0.89,37,16,11,2,1,0,True,False,False
59,4,1,60,compromise,A,R,A,target,8530.0,0.78,0.68,0.88,10,15,7,2,0,1,True,True,True
60,4,1,61,attraction,B,M,B,target,7760.0,0.72,0.68,0.66,10,14,13,2,1,0,False,False,False
61,4,1,62,filler,,R,C,,5430.0,0.27,0.47,0.86,37,21,11,0,1,2,False,False,False
62,4,1,63,filler,,L,C,,6500.0,0.29,0.42,0.72,34,23,13,1,2,0,True,False,True
63,4,1,64,attraction,A,L,B,competitor,7900.0,0.72,0.68,0.7,9,14,8,1,0,2,False,True,True
64,4,1,65,compromise,B,L,B,target,7260.0,0.72,0.68,0.58,9,15,22,1,0,2,True,True,True
65,4,1,66,attraction,B,R,B,target,8480.0,0.72,0.62,0.6,10,14,13,0,2,1,False,False,True
66,4,1,67,attraction,A,L,A,target,3580.0,0.72,0.62,0.7,10,15,9,0,1,2,True,True,True
67,4,1,68,attraction,A,R,A,target,4100.0,0.75,0.65,0.73,10,14,9,2,0,1,True,True,True
68,4,1,69,attraction,A,R,A,target,4190.0,0.78,0.68,0.76,9,15,8,2,1,0,False,False,True
69,4,1,70,compromise,B,L,B,target,9940.0,0.75,0.62,0.58,9,15,21,2,0,1,False,False,False
70,4,1,71,compromise,A,L,A,target,8050.000000000001,0.78,0.62,0.85,10,14,7,0,2,1,True,False,True
71,4,1,72,compromise,A,R,A,target,8020.0,0.72,0.65,0.82,10,15,7,2,0,1,False,True,True
72,4,1,73,filler,,R,C,,9080.0,0.32,0.6,0.78,31,16,12,1,0,2,True,True,False
73,4,1,74,attraction,B,R,A,competitor,8550.0,0.78,0.65,0.63,9,15,14,2,1,0,False,True,True
74,4,1,75,compromise,B,M,B,target,9180.0,0.72,0.62,0.55,10,14,22,2,1,0,False,False,True
75,4,2,76,compromise,B,L,B,target,7710.0,0.72,0.62,0.55,8,14,22,1,0,2,False,True,False
76,4,2,77,compromise,A,R,A,target,6250.0,0.78,0.62,0.85,8,14,5,2,1,0,False,False,False
77,4,2,78,compromise,A,M,A,target,5200.0,0.75,0.65,0.82,8,15,5,1,2,0,True,True,True
78,4,2,79,attraction,B,M,B,target,8000.0,0.72,0.62,0.6,8,15,14,2,1,0,False,False,False
79,4,2,80,attraction,A,M,A,target,10010.0,0.75,0.65,0.73,8,15,7,1,0,2,False,False,True
80,4,2,81,compromise,A,L,C,decoy,8140.000000000001,0.78,0.68,0.82,8,15,6,2,1,0,False,True,False
81,4,2,82,compromise,B,L,B,target,6310.0,0.72,0.68,0.52,8,15,22,2,0,1,False,True,True
82,4,2,83,compromise,B,L,B,target,5960.0,0.72,0.68,0.58,7,15,22,2,0,1,False,False,False
83,4,2,84,compromise,A,M,A,target,4970.0,0.75,0.65,0.85,8,15,6,1,0,2,True,True,False
84,4,2,85,compromise,B,R,A,competitor,9750.0,0.72,0.68,0.58,8,14,22,2,0,1,False,True,True
85,4,2,86,compromise,A,R,B,competitor,7290.0,0.75,0.68,0.88,7,15,6,0,2,1,False,False,False
86,4,2,87,compromise,B,L,C,decoy,7390.0,0.75,0.68,0.55,7,14,21,2,1,0,True,False,False
87,4,2,88,compromise,B,R,B,target,5630.0,0.72,0.65,0.52,8,15,21,1,2,0,True,True,False
88,4,2,89,attraction,B,L,A,competitor,9760.0,0.75,0.65,0.63,7,14,13,0,2,1,False,False,True
89,4,2,90,attraction,B,M,B,target,8490.0,0.78,0.68,0.66,7,14,13,2,1,0,False,True,False
90,4,2,91,attraction,A,R,A,target,9960.0,0.72,0.65,0.7,7,14,6,2,0,1,True,False,True
91,4,2,92,compromise,B,R,B,target,11780.0,0.78,0.62,0.55,8,14,22,1,2,0,False,True,True
92,4,2,93,attraction,A,M,B,competitor,10020.0,0.75,0.65,0.73,8,15,7,2,1,0,False,True,False
93,4,2,94,attraction,A,M,B,competitor,7500.0,0.72,0.62,0.7,8,15,7,2,1,0,True,True,True
94,4,2,95,compromise,B,M,C,decoy,12640.0,0.72,0.68,0.55,7,14,22,2,0,1,False,False,True
95,4,2,96,attraction,A,M,A,target,10490.0,0.72,0.65,0.7,8,15,7,1,2,0,False,False,True
96,4,2,97,compromise,B,L,A,competitor,5630.0,0.72,0.65,0.55,7,15,22,0,1,2,False,True,True
97,4,2,98,attraction,A,R,B,competitor,11810.0,0.75,0.68,0.73,7,14,6,1,2,0,False,True,False
98,4,2,99,attraction,A,R,B,competitor,8189.999999999999,0.72,0.68,0.7,7,14,6,0,2,1,False,False,False
99,4,2,100,compromise,A,M,C,decoy,7210.0,0.78,0.65,0.82,8,14,5,2,0,1,False,True,False
100,4,2,101,attraction,B,M,B,target,9660.0,0.78,0.65,0.63,8,15,14,0,1,2,False,False,False
101,4,2,102,filler,,L,B,,11000.0,0.27,0.47,0.86,37,21,11,1,0,2,True,False,False
102,4,2,103,attraction,A,L,A,target,7000.0,0.75,0.65,0.73,8,14,7,0,2,1,True,True,True
103,4,2,104,compromise,A,M,B,competitor,12140.0,0.72,0.65,0.82,8,15,5,0,1,2,False,True,False
104,4,2,105,compromise,B,R,A,competitor,8850.0,0.72,0.62,0.58,7,14,22,2,1,0,False,False,True
105,4,2,106,compromise,B,R,C,decoy,13180.0,0.78,0.65,0.52,8,14,21,0,1,2,True,False,True
106,4,2,107,filler,,M,C,,10480.0,0.29,0.42,0.72,34,23,13,0,2,1,False,True,True
107,4,2,108,attraction,B,L,A,competitor,4210.0,0.78,0.62,0.6,7,15,14,0,2,1,False,True,True
108,4,2,109,filler,,L,B,,7540.0,0.16,0.46,0.87,62,21,11,2,0,1,True,True,True
109,4,2,110,attraction,B,R,B,target,5000.0,0.78,0.65,0.63,7,15,14,0,2,1,True,True,True
110,4,2,111,compromise,A,R,C,decoy,10720.0,0.78,0.68,0.88,8,15,5,1,0,2,True,False,False
111,4,2,112,attraction,B,L,A,competitor,9360.0,0.72,0.68,0.66,8,14,13,0,1,2,False,False,False
112,4,2,113,attraction,B,L,B,target,4850.0,0.78,0.62,0.6,8,15,14,2,0,1,False,False,False
113,4,2,114,attraction,B,L,A,competitor,3120.0,0.72,0.65,0.63,8,14,13,0,1,2,True,False,False
114,4,2,115,filler,,R,C,,2680.0,0.32,0.48,0.85,31,20,11,1,0,2,False,True,True
115,4,2,116,compromise,B,L,A,competitor,6150.0,0.75,0.65,0.55,8,14,21,0,1,2,True,False,False
116,4,2,117,filler,,L,C,,6920.0,0.24,0.37,0.76,41,27,13,1,2,0,True,True,False
117,4,2,118,filler,,M,B,,6450.0,0.27,0.61,0.89,37,16,11,2,1,0,True,True,False
118,4,2,119,compromise,A,L,B,competitor,3310.0,0.72,0.68,0.82,8,15,5,1,0,2,True,False,False
119,4,2,120,compromise,A,R,B,competitor,9390.0,0.75,0.62,0.88,7,15,6,0,2,1,False,False,True
120,4,2,121,filler,,R,C,,10680.0,0.19,0.56,0.8,52,17,12,1,0,2,True,True,False
121,4,2,122,compromise,A,R,B,competitor,16309.999999999998,0.78,0.68,0.85,7,15,5,0,2,1,False,False,False
122,4,2,123,attraction,B,M,B,target,6420.0,0.72,0.62,0.6,7,15,14,0,1,2,True,True,False
123,4,2,124,compromise,B,R,B,target,10730.0,0.72,0.65,0.58,7,15,21,1,2,0,True,True,True
124,4,2,125,attraction,A,L,B,competitor,12420.0,0.75,0.65,0.73,8,14,7,1,0,2,False,True,True
125,4,2,126,attraction,A,M,B,competitor,10850.0,0.72,0.65,0.7,7,15,6,2,1,0,False,False,True
126,4,2,127,filler,,R,C,,10850.0,0.19,0.59,0.81,52,16,12,0,1,2,True,True,True
127,4,2,128,filler,,R,C,,4960.0,0.31,0.38,0.85,32,26,11,0,1,2,False,False,True
128,4,2,129,compromise,A,L,C,decoy,6610.0,0.72,0.68,0.82,8,15,5,2,1,0,False,False,False
129,4,2,130,attraction,B,M,A,competitor,7300.0,0.72,0.62,0.6,8,15,14,1,2,0,True,False,False
130,4,2,131,attraction,A,L,B,competitor,6740.0,0.78,0.68,0.76,7,15,6,2,0,1,True,True,True
131,4,2,132,compromise,B,M,B,target,9010.0,0.75,0.62,0.58,7,15,21,2,1,0,False,True,True
132,4,2,133,compromise,B,L,A,competitor,9640.0,0.75,0.62,0.58,8,14,22,0,1,2,True,False,False
133,4,2,134,compromise,A,M,B,competitor,6050.0,0.78,0.62,0.85,7,15,5,0,1,2,False,False,False
134,4,2,135,attraction,B,L,A,competitor,6880.0,0.75,0.68,0.66,7,14,13,0,1,2,False,True,False
135,4,2,136,attraction,B,L,B,target,6860.0,0.75,0.62,0.6,7,15,14,2,0,1,False,False,False
136,4,2,137,compromise,A,R,B,competitor,13570.0,0.78,0.68,0.88,7,15,6,1,2,0,True,False,True
137,4,2,138,attraction,A,M,B,competitor,9400.0,0.78,0.62,0.76,8,14,7,2,1,0,False,True,False
138,4,2,139,attraction,A,M,B,competitor,4840.0,0.78,0.68,0.76,8,15,7,2,1,0,False,True,True
139,4,2,140,compromise,B,M,C,decoy,9920.0,0.72,0.62,0.55,8,14,22,2,0,1,False,False,True
140,4,2,141,filler,,R,C,,14960.0,0.32,0.6,0.78,31,16,12,1,0,2,False,False,True
141,4,2,142,attraction,B,M,B,target,7050.0,0.78,0.65,0.63,8,15,14,2,1,0,False,True,True
142,4,2,143,compromise,A,L,A,target,5940.0,0.75,0.62,0.88,8,15,5,0,2,1,True,False,True
143,4,2,144,compromise,A,L,C,decoy,7870.0,0.78,0.65,0.82,8,14,6,2,1,0,False,True,True
144,4,2,145,filler,,L,C,,7310.0,0.28,0.67,0.78,35,14,12,2,1,0,True,True,False
145,4,2,146,attraction,B,L,A,competitor,3780.0,0.78,0.62,0.6,7,14,13,0,2,1,True,True,True
146,4,2,147,attraction,A,R,A,target,7930.0,0.72,0.65,0.7,7,15,6,2,0,1,False,True,False
147,4,2,148,attraction,A,R,A,target,8109.999999999999,0.78,0.62,0.76,7,15,6,2,1,0,True,True,False
148,4,2,149,attraction,B,L,A,competitor,6730.0,0.72,0.62,0.6,8,14,13,0,1,2,True,True,False
149,4,2,150,attraction,A,L,A,target,8050.000000000001,0.75,0.65,0.73,7,15,6,0,1,2,False,False,False
150,4,3,151,filler,,M,B,,11800.0,0.16,0.46,0.87,62,21,11,0,1,2,False,True,True
151,4,3,152,filler,,L,B,,6050.0,0.19,0.56,0.8,52,17,12,2,0,1,True,True,True
152,4,3,153,compromise,B,M,C,decoy,11070.0,0.72,0.62,0.55,7,14,35,0,2,1,False,True,False
153,4,3,154,compromise,A,R,A,target,3840.0,0.78,0.62,0.85,7,14,4,2,0,1,False,False,True
154,4,3,155,compromise,A,L,A,target,5500.0,0.75,0.62,0.88,7,15,4,0,1,2,False,True,True
155,4,3,156,compromise,A,M,C,decoy,2970.0,0.78,0.68,0.88,7,15,4,0,2,1,False,False,True
156,4,3,157,filler,,M,C,,5000.0,0.29,0.42,0.72,34,23,13,2,0,1,True,False,False
157,4,3,158,compromise,B,L,C,decoy,6050.0,0.78,0.62,0.55,7,14,35,1,2,0,False,True,True
158,4,3,159,attraction,B,M,B,target,6460.0,0.78,0.65,0.63,6,15,14,2,1,0,False,True,True
159,4,3,160,compromise,A,M,B,competitor,8440.0,0.72,0.65,0.82,7,15,4,2,1,0,True,True,True
160,4,3,161,compromise,B,M,B,target,3570.0,0.72,0.68,0.58,7,14,35,0,1,2,False,False,True
161,4,3,162,compromise,A,M,B,competitor,6250.0,0.78,0.68,0.88,6,15,5,0,1,2,False,False,False
162,4,3,163,attraction,A,R,B,competitor,5520.0,0.75,0.65,0.73,7,15,6,1,2,0,True,True,True
163,4,3,164,attraction,B,R,B,target,2890.0,0.75,0.62,0.6,6,15,14,0,2,1,False,True,True
164,4,3,165,attraction,B,L,B,target,5100.0,0.72,0.62,0.6,7,15,14,1,0,2,True,False,True
165,4,3,166,filler,,R,C,,5210.0,0.32,0.6,0.78,31,16,12,0,1,2,True,True,False
166,4,3,167,compromise,A,L,B,competitor,3880.0,0.75,0.68,0.88,6,15,5,2,0,1,False,False,True
167,4,3,168,compromise,A,M,A,target,6600.0,0.78,0.65,0.82,7,14,4,1,0,2,False,True,False
168,4,3,169,compromise,B,R,C,decoy,9550.0,0.72,0.62,0.58,6,14,35,0,1,2,False,True,True
169,4,3,170,filler,,M,C,,8700.0,0.27,0.61,0.89,37,16,11,0,2,1,True,True,True
170,4,3,171,filler,,R,B,,10110.0,0.19,0.59,0.81,52,16,12,1,2,0,True,True,False
171,4,3,172,filler,,L,C,,9550.0,0.32,0.48,0.85,31,20,11,1,2,0,True,False,False
172,4,3,173,attraction,A,R,A,target,5720.0,0.75,0.65,0.73,7,14,6,2,1,0,True,False,True
173,4,3,174,filler,,L,C,,8260.0,0.28,0.67,0.78,35,14,12,2,1,0,True,True,True
174,4,3,175,attraction,B,L,B,target,7190.0,0.78,0.65,0.63,7,15,14,2,0,1,False,False,True
175,4,3,176,attraction,B,L,B,target,9830.0,0.75,0.65,0.63,6,14,13,1,0,2,True,True,False
176,4,3,177,filler,,R,B,,6860.0,0.24,0.37,0.76,41,27,13,0,2,1,False,False,False
177,4,3,178,compromise,B,L,C,decoy,12900.0,0.75,0.62,0.58,6,15,34,1,2,0,True,True,False
178,4,3,179,attraction,B,M,B,target,5480.0,0.78,0.62,0.6,6,14,13,0,1,2,False,True,True
179,4,3,180,attraction,B,L,B,target,6920.0,0.72,0.68,0.66,7,14,13,2,0,1,False,True,True
180,4,3,181,attraction,B,L,B,target,7450.0,0.78,0.62,0.6,7,15,14,2,0,1,False,False,True
181,4,3,182,attraction,A,L,A,target,9530.0,0.72,0.65,0.7,6,15,5,0,2,1,False,True,False
182,4,3,183,attraction,B,L,B,target,5350.0,0.72,0.62,0.6,7,14,13,1,0,2,True,False,True
183,4,3,184,filler,,M,C,,5660.0,0.27,0.47,0.86,37,21,11,0,2,1,True,False,True
184,4,3,185,attraction,B,M,A,competitor,3010.0,0.72,0.62,0.6,7,15,14,1,0,2,False,True,False
185,4,3,186,attraction,B,M,A,competitor,3870.0,0.72,0.65,0.63,7,14,13,1,2,0,True,False,False
186,4,3,187,attraction,A,M,B,competitor,8710.0,0.75,0.65,0.73,6,15,5,2,1,0,True,False,False
187,4,3,188,attraction,B,L,B,target,5420.0,0.78,0.62,0.6,6,15,14,1,0,2,True,False,False
188,4,3,189,attraction,B,L,B,target,4900.0,0.78,0.68,0.66,6,14,13,2,0,1,False,True,False
189,4,3,190,compromise,A,M,B,competitor,9150.0,0.78,0.62,0.85,6,15,4,0,1,2,True,False,False
190,4,3,191,attraction,A,R,B,competitor,3450.0,0.72,0.65,0.7,6,15,5,1,2,0,False,False,False
191,4,3,192,attraction,A,M,B,competitor,5970.0,0.72,0.68,0.7,6,14,5,2,1,0,True,True,False
192,4,3,193,attraction,A,R,B,competitor,3980.0,0.72,0.62,0.7,7,15,6,0,2,1,False,False,False
193,4,3,194,attraction,B,L,B,target,10040.0,0.78,0.65,0.63,7,15,14,2,0,1,False,True,True
194,4,3,195,compromise,B,M,C,decoy,2940.0,0.72,0.68,0.58,6,15,35,0,2,1,True,False,False
195,4,3,196,compromise,B,M,C,decoy,5250.0,0.75,0.68,0.55,6,14,34,0,2,1,True,True,True
196,4,3,197,compromise,B,R,B,target,8900.0,0.78,0.65,0.52,7,14,34,1,2,0,True,True,True
197,4,3,198,compromise,A,R,A,target,7170.0,0.75,0.65,0.85,7,15,5,2,1,0,True,False,True
198,4,3,199,compromise,A,M,B,competitor,6520.0,0.72,0.68,0.82,7,15,4,2,1,0,True,False,False
199,4,3,200,attraction,A,R,A,target,6930.0,0.75,0.65,0.73,7,15,6,2,0,1,False,True,False
200,4,3,201,attraction,A,L,B,competitor,4250.0,0.78,0.62,0.76,6,15,5,1,0,2,False,False,False
201,4,3,202,compromise,A,R,B,competitor,4730.0,0.78,0.68,0.82,7,15,5,1,2,0,True,True,True
202,4,3,203,attraction,A,M,B,competitor,4090.0,0.72,0.65,0.7,6,14,5,2,1,0,True,True,True
203,4,3,204,compromise,B,L,B,target,2420.0,0.72,0.68,0.52,7,15,35,1,0,2,False,True,True
204,4,3,205,attraction,A,M,A,target,9610.0,0.75,0.68,0.73,6,14,5,1,2,0,False,True,True
205,4,3,206,compromise,A,M,B,competitor,10280.0,0.78,0.68,0.85,6,15,4,0,1,2,True,True,True
206,4,3,207,compromise,A,L,B,competitor,3320.0,0.75,0.62,0.88,6,15,5,2,0,1,False,True,False
207,4,3,208,attraction,A,L,A,target,7160.0,0.75,0.65,0.73,7,14,6,0,2,1,True,True,False
208,4,3,209,compromise,B,M,C,decoy,4520.0,0.72,0.68,0.55,6,14,35,0,2,1,True,False,False
209,4,3,210,attraction,A,R,B,competitor,5930.0,0.78,0.68,0.76,7,15,6,1,2,0,False,True,True
210,4,3,211,attraction,B,R,B,target,8990.0,0.72,0.62,0.6,6,15,14,0,2,1,True,True,True
211,4,3,212,compromise,B,L,C,decoy,6660.0,0.72,0.65,0.52,7,15,34,1,2,0,True,False,False
212,4,3,213,compromise,B,L,C,decoy,6620.0,0.75,0.65,0.55,7,14,34,2,1,0,False,False,False
213,4,3,214,filler,,L,C,,7320.0,0.31,0.38,0.85,32,26,11,1,2,0,True,True,True
214,4,3,215,compromise,A,M,A,target,4940.0,0.72,0.68,0.82,7,15,4,1,2,0,True,False,False
215,4,3,216,attraction,B,R,B,target,11460.0,0.75,0.68,0.66,6,14,13,0,2,1,False,True,True
216,4,3,217,attraction,A,L,A,target,13740.0,0.72,0.65,0.7,7,15,6,0,2,1,False,False,False
217,4,3,218,compromise,B,R,C,decoy,10810.0,0.75,0.62,0.58,7,14,35,1,0,2,True,True,False
218,4,3,219,compromise,A,R,C,decoy,9290.0,0.75,0.65,0.82,7,15,4,1,0,2,True,True,True
219,4,3,220,attraction,A,L,B,competitor,6050.0,0.78,0.68,0.76,6,15,5,1,0,2,True,True,True
220,4,3,221,compromise,A,L,B,competitor,7360.0,0.78,0.65,0.82,7,14,5,2,0,1,False,False,False
221,4,3,222,compromise,B,R,B,target,8270.0,0.72,0.62,0.55,7,14,35,1,2,0,True,False,False
222,4,3,223,compromise,B,L,C,decoy,5910.0,0.72,0.65,0.55,6,15,35,2,1,0,True,True,False
223,4,3,224,attraction,A,M,B,competitor,2900.0,0.78,0.62,0.76,7,14,6,0,1,2,False,False,True
224,4,3,225,compromise,B,L,B,target,5360.0,0.72,0.65,0.58,6,15,34,1,0,2,False,False,False
0,5,1,1,filler,,M,C,,4030.0000000000005,0.31,0.38,0.85,32,26,11,0,2,1,False,False,False
1,5,1,2,compromise,A,R,B,competitor,5650.0,0.78,0.68,0.82,7,15,4,0,2,1,False,False,False
2,5,1,3,attraction,B,L,B,target,7820.0,0.72,0.62,0.6,7,14,13,1,0,2,True,True,True
3,5,1,4,attraction,A,R,B,competitor,16010.000000000002,0.75,0.68,0.73,6,14,5,0,2,1,True,False,True
4,5,1,5,filler,,M,C,,7310.0,0.27,0.61,0.89,37,16,11,0,2,1,True,True,True
5,5,1,6,filler,,L,C,,7530.0,0.32,0.6,0.78,31,16,12,2,1,0,True,True,True
6,5,1,7,compromise,A,L,A,target,7670.0,0.78,0.68,0.88,6,15,4,0,2,1,True,True,False
7,5,1,8,attraction,A,L,A,target,7570.0,0.72,0.62,0.7,7,15,6,0,1,2,True,False,True
8,5,1,9,attraction,A,R,A,target,12120.0,0.75,0.65,0.73,7,14,6,2,1,0,True,False,False
9,5,1,10,compromise,A,L,A,target,13240.0,0.75,0.62,0.88,6,15,4,0,2,1,True,False,False
10,5,1,11,attraction,A,M,A,target,10160.0,0.78,0.68,0.76,7,15,6,1,2,0,False,True,True
11,5,1,12,filler,,L,C,,11670.0,0.27,0.47,0.86,37,21,11,2,1,0,True,True,True
12,5,1,13,attraction,B,R,B,target,10690.0,0.78,0.65,0.63,7,15,14,0,2,1,True,True,False
13,5,1,14,attraction,B,L,B,target,8930.0,0.72,0.65,0.63,7,14,13,2,0,1,False,False,False
14,5,1,15,compromise,A,L,B,competitor,14410.0,0.72,0.68,0.82,7,15,3,2,0,1,False,False,False
15,5,1,16,compromise,B,L,B,target,11240.0,0.72,0.68,0.52,7,15,33,2,0,1,True,True,True
16,5,1,17,compromise,B,L,B,target,14350.0,0.72,0.65,0.58,6,15,32,2,0,1,False,False,True
